Ax,Ay,Az,Gx,Gy,Gz
0.4784688995215311,0.5695695695695695,0.6181181181181181,0.5063937771421595,0.4889355913284615,0.0
0.5337586390217969,0.4947447447447446,0.7542542542542542,0.5002738196975774,0.4973437745260478,0.5012505014214207
0.4391281233386496,0.4034034034034033,0.9129129129129128,0.0,1.0,1.0
0.1283891547049441,0.2990490490490489,0.8863863863863863,0.0,0.0,0.0
0.1512493354598618,0.1829329329329329,0.3886386386386386,1.0,0.0,0.0
0.5337586390217969,0.4947447447447446,0.7540040040040039,0.500381952317003,0.4974519071454732,0.5012505014214207
0.4678362573099415,0.4456956956956956,0.7525025025025025,0.4972984285888693,0.4953921551528681,0.5678793798071053
0.0925039872408293,0.7782782782782782,0.200950950950951,1.0,0.004822366011476,0.0
0.6161616161616161,0.0190190190190189,1.0,0.7865043514658946,0.9978635087290928,0.0188011231839824
0.6988304093567251,0.4229229229229228,0.5377877877877878,0.9850899070408288,0.0,0.2024626332036905
0.5175438596491229,0.4191691691691691,0.7587587587587588,0.0,0.4704396811831801,0.4394300364511572
0.4688995215311005,0.5650650650650649,0.7617617617617617,0.500151734482097,0.495559586305527,0.3648970124003697
0.4768740031897927,0.4869869869869869,0.7114614614614614,0.5020597519926051,0.4974065612082948,0.2229572527338367
0.44896331738437,0.5437937937937937,0.755005005005005,0.4961543157123672,0.4933306590857561,0.3969914714756614
0.1791600212652844,0.4229229229229228,0.5935935935935935,0.3757015539703856,0.9325775677136928,0.5018609274988227
0.0156831472620946,0.0090090090090089,0.8563563563563563,0.038273715053107,1.0,1.0
0.5340244550770866,0.4949949949949949,0.7542542542542542,0.5003348623053177,0.4973298219299928,0.501297591433106
0.0,0.627127127127127,0.5988488488488488,0.3162303573608664,0.1393759701414444,0.0
0.5337586390217969,0.4949949949949949,0.7540040040040039,0.5002598671015226,0.4973437745260478,0.5012818947625443
0.5603402445507709,0.3993993993993993,0.3761261261261261,0.0,0.4469853672148874,0.546010429565551
0.7644869750132908,0.2877877877877877,1.0,0.0,0.5075396340931685,0.0690845352913476
0.0515683147262094,0.0,1.0,0.1972583148752115,1.0,0.4916982053473324
0.6472620946305156,0.4189189189189188,0.4019019019019019,0.780811692275494,0.0,0.4084814343268744
0.5337586390217969,0.4947447447447446,0.7537537537537538,0.5003662556464412,0.4972984285888693,0.5013586340408462
0.5606060606060607,0.7032032032032031,0.842092092092092,0.0,0.5119643511170797,0.3846905139787572
0.626528442317916,0.3733733733733733,0.4221721721721722,0.0,0.3878804262518094,0.4119922563091895
0.7022860180754917,0.7247247247247246,0.8363363363363363,0.3635087290929069,1.0,0.2670928022045101
0.2934609250398724,0.9454454454454452,0.4306806806806806,0.6868217730261437,1.0,0.0081797094371871
0.2293992557150452,0.4346846846846846,0.5565565565565566,0.5410816750091564,0.0,0.4539442244972705
0.2134502923976608,0.0,1.0,0.0,1.0,0.4340582869700193
0.5637958532695375,0.6236236236236236,0.9186686686686686,0.0021050979297835,0.5393428327258141,0.4585520693444024
0.1733120680489101,0.3713713713713713,0.4982482482482482,0.6423060153129742,0.3241362471004761,0.4957723633953642
0.5340244550770866,0.4947447447447446,0.7542542542542542,0.500305213038701,0.4973751678671713,0.5012818947625443
0.5337586390217969,0.4949949949949949,0.7542542542542542,0.5003348623053177,0.4974205138043497,0.5012505014214207
0.1368952684742158,0.1886886886886886,0.8203203203203202,0.0030974763241886,0.1878124073460418,0.2603624186825261
0.5435938330675173,0.5272772772772771,0.6589089089089089,0.5027312206777473,0.4861276313724122,0.0
0.4681020733652312,0.4897397397397396,0.7565065065065064,0.5025794861956503,0.4978949020702164,0.5146502258576486
0.3484848484848485,0.5232732732732732,0.9697197197197196,0.00405846137747,0.0712820691699949,0.0
0.0,0.0,0.93018018018018,0.8406177511903308,0.0141008423879868,0.0
0.5334928229665071,0.4949949949949949,0.7545045045045045,0.5003209097092628,0.4973141252594311,0.501220852154804
0.575491759702286,0.4344344344344343,1.0,0.957270174581858,0.2946823168285749,0.6924219962676805
0.2961190855927698,0.4471971971971971,0.5685685685685685,0.1680956450459563,1.0,0.6124090901163297
0.2488038277511962,0.4126626626626626,0.523023023023023,0.6206969321729424,0.0068053787257791,0.6094336990076216
0.2028176501860712,0.387137137137137,0.5077577577577578,0.5713134625111185,0.0066693409142438,0.4589479742574602
0.0,0.7322322322322321,0.3230730730730731,1.0,0.0,0.0
0.4558745348219032,0.0002502502502502,1.0,0.0083314439192842,1.0,0.0136438948671887
0.0,0.1719219219219218,0.6041041041041041,1.0,0.0,0.0
0.7341839447102605,0.522022022022022,0.537037037037037,0.9998482655179028,0.0,0.2919214468842109
0.5457203615098352,0.7049549549549549,0.745995995995996,0.0,0.5732511292882432,0.3242740289865183
0.0,0.9529529529529528,0.0002502502502502,1.0,0.1881176203847428,0.0
0.5340244550770866,0.4949949949949949,0.7542542542542542,0.5003662556464412,0.4973437745260478,0.5012051554842423
0.5534290271132376,0.4609609609609609,0.3808808808808809,1.0,0.6537506322270088,0.8324990843608839
0.5882509303561935,0.5495495495495495,0.694944944944945,0.4953764584823064,0.5033573434257111,1.0
0.2006911217437533,0.3403403403403403,0.9997497497497496,0.0,0.0,0.2712576521268989
0.4335459861775651,0.4687187187187186,0.6413913913913913,0.5039224235659348,0.4934684409717983,0.0070652458273017
0.6610845295055822,0.4209209209209208,0.7532532532532532,0.5002145211643442,0.4974972530826517,0.624938521373633
0.3155236576289207,0.572072072072072,0.6198698698698698,0.6936724976891013,0.0,0.3816226869211853
0.6198830409356725,0.5472972972972971,0.6614114114114114,0.4933306590857561,0.5057223084570173,1.0
0.5337586390217969,0.4947447447447446,0.7540040040040039,0.5002598671015226,0.4973437745260478,0.5011912028881874
0.4117490696438065,1.0,0.279029029029029,0.0009470324572266,1.0,0.9428484224846084
0.5552897395002658,0.5407907907907907,0.6141141141141141,0.6765666149257896,0.0,0.4436123271186145
0.6041998936735778,0.2647647647647647,0.1108608608608608,0.8757172506409474,0.4426652946613879,0.5078134537907459
0.5340244550770866,0.4947447447447446,0.7540040040040039,0.5002441704309608,0.4974205138043497,0.5013429373702845
0.5334928229665071,0.4949949949949949,0.7540040040040039,0.5003348623053177,0.4973298219299928,0.5011912028881874
0.8729399255715045,0.5165165165165164,0.7324824824824825,0.6028271447756248,1.0,0.4702269040933429
0.5337586390217969,0.4949949949949949,0.7542542542542542,0.500381952317003,0.4974362104749115,0.5013586340408462
0.5340244550770866,0.4947447447447446,0.7540040040040039,0.5003209097092628,0.4973751678671713,0.501220852154804
0.5334928229665071,0.4947447447447446,0.7542542542542542,0.5003348623053177,0.497390864537733,0.5012365488253658
0.4710260499734184,0.5042542542542542,0.7477477477477477,0.5045624989099534,0.498688455970839,0.4575300416833807
0.5337586390217969,0.4947447447447446,0.7542542542542542,0.5003662556464412,0.497467603816035,0.501297591433106
0.4909622541201489,0.6609109109109108,0.5725725725725725,1.0,0.6137991174982995,0.7864729581247711
0.0629984051036682,0.4476976976976976,0.2087087087087087,0.3142019987093848,0.0,0.0
0.5340244550770866,0.4949949949949949,0.7542542542542542,0.500381952317003,0.4974205138043497,0.5012365488253658
0.6185539606592239,0.4754754754754754,0.744994994994995,0.5035701205155484,0.4965519646999319,0.0
0.5917065390749602,0.4074074074074073,0.3108108108108108,0.0,0.4449709611594607,0.5014336292446413
0.6294524189261032,0.6746746746746746,0.6516516516516516,0.4830458517187854,0.5054484887594398,1.0
0.440723019670388,0.5092592592592592,0.6511511511511511,0.5145577899087849,0.5064705164204615,0.0235624465877182
0.1988304093567252,0.3501001001001,0.5528028028028028,0.4655266232973473,0.5775694577672358,0.5360447878333362
0.80622009569378,0.5833333333333333,0.78003003003003,0.5497183319671416,1.0,0.5425466975949212
0.0606060606060606,0.3198198198198198,0.6626626626626626,0.6860264750510142,0.0,0.0
0.0,0.597097097097097,0.3363363363363363,1.0,0.0,0.0
0.4189261031366295,0.5245245245245245,0.7512512512512513,0.5000156966705618,0.4961996616495456,0.6078779845474999
0.5653907496012759,0.649149149149149,0.7695195195195195,0.0,0.5028079599560493,0.4127701135392504
0.5369484316852738,0.7545045045045045,0.9807307307307308,1.0,0.6252280377417723,0.5686572370371662
0.5337586390217969,0.4949949949949949,0.7542542542542542,0.5003209097092628,0.4974065612082948,0.5011912028881874
0.5337586390217969,0.4949949949949949,0.7542542542542542,0.5003662556464412,0.4973437745260478,0.5012505014214207
0.5659223817118554,0.7212212212212211,0.826076076076076,0.0,0.478329874252228,0.4260617053560528
0.4497607655502392,0.5735735735735734,0.7655155155155156,0.5002145211643442,0.4957723633953642,0.3936480806460052
0.4885699096225412,0.5135135135135134,0.7607607607607607,0.5150932207823918,0.5068053787257791,0.5455220887036294
0.6103136629452419,0.5327827827827827,0.7367367367367367,0.5022289272197709,0.4962153583201074,0.0092174337687706
0.5733652312599681,0.5733233233233233,0.6776776776776776,0.4946596438599857,0.5037235990721524,1.0
0.5350877192982456,0.6584084084084083,0.7835335335335334,0.4552854177930481,0.5114446169140345,0.5623088058321851
0.5308346624136098,0.3618618618618617,0.3465965965965966,1.0,0.7413467743341995,0.7008144827947049
0.0,0.5783283283283283,0.7640140140140139,0.0318188953032074,0.0003819523170029,0.0
0.4835194045720361,0.4839839839839839,0.7242242242242242,0.501374330711408,0.4978792053996547,0.6212463156426042
0.5340244550770866,0.4949949949949949,0.7540040040040039,0.5003505589758794,0.4974065612082948,0.5012818947625443
0.4279638490164806,0.574074074074074,0.6891891891891891,0.5186336920313236,0.0,0.4856549871810524
0.2341839447102605,0.4529529529529528,0.6063563563563563,0.4520362069867625,1.0,0.4708669794373615
0.098883572567783,0.548048048048048,0.3058058058058058,0.4435966304480527,0.0,0.0
0.511164274322169,0.4777277277277276,0.6498998998998998,0.4901878368243891,0.4881577340984007,0.0
0.2589048378522063,0.507007007007007,0.5763263263263263,0.4809547063850568,0.8799448872455831,0.0
0.5337586390217969,0.4947447447447446,0.7542542542542542,0.5003209097092628,0.4973751678671713,0.5012818947625443
0.0,0.0,0.7252252252252251,0.0,1.0,1.0
0.4393939393939394,0.5115115115115114,0.7057057057057057,0.5195493311474266,0.508805832185151,0.1166681200620891
0.7371079213184477,0.5885885885885884,0.8093093093093093,0.4585677660149642,0.4973594711966095,0.0
0.5334928229665071,0.4947447447447446,0.7542542542542542,0.5004272982541814,0.4973751678671713,0.5012505014214207
0.4194577352472089,0.5167667667667667,0.6398898898898899,0.5070042032195615,0.4893628895826429,0.0
0.5369484316852738,0.6696696696696696,0.8898898898898898,0.9050333990268064,0.4994663132008999,0.5893210317944783
0.5964912280701754,0.5352852852852852,0.746996996996997,0.5015714111306835,0.4971309974362105,0.1461656521966619
0.4992025518341307,0.5025025025025024,0.7392392392392392,0.502532396183965,0.4984128921987547,0.0767462545999965
0.7634237107921319,0.3298298298298298,0.5663163163163163,0.5400439506775729,0.0,0.7295498543697787
0.5340244550770866,0.4949949949949949,0.7540040040040039,0.5003976489875648,0.4974205138043497,0.501220852154804
0.5337586390217969,0.4554554554554554,0.6238738738738738,0.4636186057868392,0.4640616007115824,0.0
0.5337586390217969,0.4947447447447446,0.7542542542542542,0.5003348623053177,0.4974519071454732,0.5011912028881874
0.3705475810738968,0.4812312312312311,0.7505005005005004,0.0,0.0,0.0575021364912708
0.3960659223817118,0.4969969969969969,0.7272272272272272,0.5019690601182483,0.4981233758306155,0.2417130299806408
0.1844763423710792,0.4049049049049048,0.5523023023023023,0.3658893907947748,1.0,0.5772956380696583
0.2599681020733652,0.9619619619619618,0.0017517517517517,1.0,0.0005790327362785,0.0
0.542796384901648,0.5528028028028027,0.6488988988988988,0.5028690025637895,0.4957584107993093,0.0
0.6015417331206805,0.5450450450450449,0.6191191191191191,0.4953293684706211,0.4918970298411148,0.0
0.3692185007974481,0.4859859859859859,0.532032032032032,0.36341803721855,1.0,0.602277761305963
0.3288144603934078,0.9957457457457456,0.4614614614614614,0.3476829970176326,1.0,0.6011929469626942
0.5337586390217969,0.4949949949949949,0.7542542542542542,0.5003662556464412,0.4974362104749115,0.5013429373702845
0.6632110579479,0.5803303303303302,0.6461461461461461,0.4897134485585224,0.5060432181662801,1.0
0.5627325890483785,0.517017017017017,0.7229729729729729,0.5026858747405689,0.4971920400439507,0.0
0.5518341307814992,0.5648148148148147,0.6784284284284283,0.6618849957270174,0.0,0.3794408497130997
0.5337586390217969,0.4947447447447446,0.7537537537537538,0.5002895163681392,0.4974065612082948,0.501220852154804
0.0,1.0,0.0,0.8556342326944206,0.7272616286167746,0.0
0.2219564061669325,0.412162162162162,0.5738238238238238,0.3024207754155257,1.0,0.6076477667125939
0.3229665071770334,0.6293793793793793,0.7192192192192192,0.4999686066588765,0.4967961351308927,0.9486631668904896
0.5337586390217969,0.4949949949949949,0.7542542542542542,0.5003505589758794,0.4974362104749115,0.5012365488253658
0.4141414141414141,0.5643143143143142,0.7910410410410409,0.6604496224078693,0.0,0.6703245722657272
0.6100478468899522,0.572072072072072,0.7402402402402402,0.5021050979297835,0.4982908069832743,0.0636063972652911
0.1618819776714514,0.7682682682682681,0.3338338338338338,1.0,0.2457418420914942,0.0
0.5340244550770866,0.4947447447447446,0.7540040040040039,0.5003209097092628,0.4973141252594311,0.5012818947625443
0.5337586390217969,0.4949949949949949,0.7540040040040039,0.5003505589758794,0.4973141252594311,0.5012661980919825
0.582668793195109,0.2635135135135135,0.3180680680680681,0.6316392556290005,0.5099045991244746,0.5573643546052287
0.9093567251461988,0.3838838838838838,0.7052052052052051,0.5622024172872665,0.1432826970368174,0.3828435390759893
0.1480595427963849,0.2397397397397397,1.0,0.9822819470847794,1.0,0.0
0.3958001063264221,0.4989989989989989,0.6308808808808808,0.5063937771421595,0.4917435512845108,0.0
0.466241360978203,0.5122622622622621,0.7617617617617617,0.5002895163681392,0.4970246088912918,0.4691734830911976
0.8322700691121744,0.4634634634634634,0.6789289289289289,0.6274116190243647,0.7489614036311631,0.5165582433681567
0.6467304625199362,0.2557557557557557,1.0,0.0,0.7244990145979036,0.12049810767916
0.1834130781499202,0.4537037037037036,0.5703203203203203,0.5068367720669027,0.0,0.44931893890507
0.5925039872408293,0.3225725725725725,0.3330830830830831,0.0393724819924307,0.4886007290231439,0.4875787013621221
0.5289739500265817,0.2912912912912913,0.23998998998999,0.0085773584247519,0.5560214172349442,0.572731395085198
0.593833067517278,0.6599099099099098,1.0,1.0,0.4489683799291906,0.5186633412979402
0.0,0.2302302302302302,0.6013513513513513,1.0,0.0,0.0
0.5337586390217969,0.4949949949949949,0.7540040040040039,0.5004569475207981,0.4974362104749115,0.5012505014214207
0.156034024455077,0.4401901901901901,0.5588088088088088,0.4004395067757295,1.0,0.5243716971589026
0.1491228070175438,1.0,0.521021021021021,0.4228124945497671,1.0,0.0281406421682334
0.6850079744816586,0.574074074074074,0.7022022022022022,0.4945515112405602,0.5044561103650348,1.0
0.5007974481658692,0.5372872872872871,0.5513013013013013,0.3890402357988733,1.0,0.5348396323490939
0.1924508240297714,0.5267767767767767,0.9376876876876876,0.0,1.0,1.0
0.5685805422647527,0.5130130130130129,0.7402402402402402,0.5010377243315834,0.4961229223712437,0.050832795577027
0.0778841041998936,0.6921921921921921,0.1196196196196197,1.0,0.22393393445768,0.0
0.5207336523125997,0.4667167167167166,0.7287287287287287,0.4830301550482236,0.4791530774194673,0.5292080157664335
0.2565124933545986,0.5688188188188187,0.7147147147147146,0.5003976489875648,0.495482847027225,0.9787414758358476
0.5342902711323764,0.5738238238238237,0.6153653653653653,0.0,0.4523710692920801,0.2838027800547639
0.359117490696438,0.5232732732732732,0.766016016016016,0.0,1.0,1.0
0.5951621477937268,0.4491991991991991,0.2229729729729729,0.0,0.4362715175192284,0.4563859288068786
0.8620414673046253,0.372122122122122,0.6569069069069069,0.458429984128922,0.4628860944939568,0.522739243420479
0.1972355130249867,1.0,0.2254754754754754,0.5007935539006226,1.0,0.0689328008092505
0.2060074428495481,0.3646146146146145,0.4967467467467467,0.6166227741249106,0.0900221497462371,0.4512879990233183
0.5342902711323764,0.4947447447447446,0.7542542542542542,0.5002895163681392,0.4973594711966095,0.501297591433106
0.5337586390217969,0.4947447447447446,0.7537537537537538,0.5003976489875648,0.4973751678671713,0.5012051554842423
0.5337586390217969,0.4947447447447446,0.7542542542542542,0.500381952317003,0.497390864537733,0.5012365488253658
0.5329611908559277,0.2932932932932932,0.28003003003003,0.1841498508816297,0.5242496119434222,0.4889355913284615
0.0029239766081871,0.4677177177177176,0.5665665665665666,0.1371173936550569,0.0,0.0
0.5645933014354068,0.376126126126126,0.4507007007007007,0.0,0.4980012906151351,0.4730959066571324
0.2985114300903774,0.2880380380380379,0.8460960960960959,0.1412368976402672,0.1248931754364546,0.0
0.5730994152046783,0.5317817817817817,0.5803303303303303,0.3735493660289167,1.0,0.7911575422502048
0.5730994152046783,0.2977977977977977,0.3786286286286286,0.1119521425955317,0.5080576242217067,0.4137624919336554
0.0813397129186602,1.0,0.1141141141141141,1.0,0.6248024835620978,0.0
0.2421584263689526,0.3405905905905905,0.4937437437437437,0.5385492788251914,0.3873763887193261,0.508652353628547
0.5417331206804891,0.5683183183183182,0.3988988988988989,1.0,0.6269389748330049,0.7474213858416031
0.4779372674109516,0.512012012012012,0.7562562562562563,0.4985349774142351,0.4952683258628809,0.5229816697769328
0.440723019670388,0.6428928928928928,0.3938938938938939,1.0,0.6027957514345013,0.6702774822540419
0.5015948963317385,0.5573073073073073,0.736986986986987,0.5012818947625443,0.4965816139665486,0.1020178942044404
0.462254120148857,0.5152652652652652,0.7087087087087086,0.5059368296213614,0.4909046514467098,0.0
0.603136629452419,0.5157657657657657,0.7447447447447447,0.5081029701588852,0.5024730976507317,0.7125503601513856
0.5337586390217969,0.4947447447447446,0.7542542542542542,0.5003662556464412,0.4973594711966095,0.5012365488253658
0.5337586390217969,0.4947447447447446,0.7542542542542542,0.5003209097092628,0.4974065612082948,0.5012661980919825
0.0645933014354067,0.3085585585585585,0.7687687687687688,0.8600136037811534,0.0,0.0
0.0172780435938331,0.4559559559559559,0.3766266266266266,1.0,0.0,0.0
0.5340244550770866,0.4947447447447446,0.7542542542542542,0.5003662556464412,0.497467603816035,0.5012051554842423
0.901913875598086,0.4602102102102101,0.7142142142142142,0.4603676509060467,0.7815895495055549,0.3739923609536599
0.0,0.8808808808808808,0.2492492492492493,1.0,0.4788792577218899,0.0
0.3490164805954279,0.6088588588588587,0.6746746746746746,0.4426809913319497,0.4827563353506461,1.0
0.7038809144072302,0.6198698698698698,0.7555055055055054,0.5001674311526588,0.4966723058409055,0.132828714442681
0.1602870813397129,0.4261761761761761,0.617117117117117,0.349484625983222,0.9863718018033728,0.535983745225596
0.2464114832535884,0.4554554554554554,0.5935935935935935,0.3795629349285802,1.0,0.4870746638296388
0.869484316852738,0.3738738738738738,0.6031031031031031,0.5060118248251565,0.2286813052653609,0.3057467255001134
0.5914407230196704,0.377127127127127,0.4391891891891892,0.0,0.3122486352616984,0.5258053264035439
0.5582137161084529,0.2787787787787787,0.4204204204204204,0.2716709977850253,0.5164204614821145,0.4664108690723267
0.7971823498139288,0.5865865865865865,0.5045045045045045,0.8010621413746795,0.0,0.5827894727662766
0.5,0.5818318318318317,0.7142142142142142,0.4639552121666637,0.485838115004273,1.0
0.6701222753854332,0.5485485485485484,0.7267267267267267,0.3750300852852434,1.0,0.4775520170221672
0.3104731525784157,0.5923423423423423,0.6356356356356356,0.6043061199574445,1.0,0.7264680747161518
0.5337586390217969,0.4947447447447446,0.7537537537537538,0.500305213038701,0.4973594711966095,0.5012661980919825
0.2809675704412546,0.3143143143143142,0.8851351351351351,0.0,0.6746272040741581,0.0478870537349355
0.3181818181818182,0.4677177177177176,0.7992992992992993,0.3941364215079268,0.4884176011999233,1.0
0.5390749601275917,0.7329829829829828,0.7479979979979979,0.3888867572422694,0.5362436123271186,0.5357099255280185
0.5340244550770866,0.4944944944944944,0.7542542542542542,0.5003209097092628,0.4973141252594311,0.5013115440291609
0.4013822434875066,0.3533533533533532,1.0,0.1607862287876938,0.0,0.0754329664963287
0.2163742690058479,0.3948948948948948,0.47997997997998,0.5297887925772189,0.5228299352948358,0.5933341472347698
0.5053163211057948,0.885135135135135,0.7012012012012012,0.4721942201370842,0.5450337478417078,0.661075745155833
0.6244019138755981,0.5152652652652652,0.7359859859859859,0.4969025236758114,0.500838899837801,0.9176378254879048
0.5419989367357788,0.5505505505505505,0.7474974974974975,0.5110940579381551,0.5050822331129986,0.4695083453965153
0.188729399255715,0.3738738738738738,0.517017017017017,0.5113382283691159,0.6548040532291539,0.5459040410206324
0.5337586390217969,0.4949949949949949,0.7542542542542542,0.5003348623053177,0.4974205138043497,0.5012051554842423
0.5276448697501329,0.5928428428428427,0.7269769769769769,0.0,0.4706838516141409,0.3813488672236078
0.5409356725146199,0.3298298298298298,0.305055055055055,0.2521966618413939,0.5385789280918081,0.5805151996093273
0.5279106858054227,0.603103103103103,0.7494994994994995,0.4964438320805064,0.4951462406474005,0.6721105045607548
0.5340244550770866,0.4947447447447446,0.7542542542542542,0.5003348623053177,0.4974065612082948,0.5012505014214207
0.5334928229665071,0.4944944944944944,0.7537537537537538,0.5003348623053177,0.497390864537733,0.5013115440291609
0.5098351940457204,0.3893893893893893,1.0,0.998916929731238,0.5865584177756074,0.5326420984704466
0.7783094098883573,0.5560560560560559,0.5002502502502503,0.6500270331548563,0.0,0.4821755585398608
0.5265816055289739,0.3088088088088087,1.0,0.0,1.0,1.0
0.46943115364168,0.4994994994994994,0.7232232232232232,0.523806617018679,0.5425920435320997,0.5333903064338908
0.5337586390217969,0.4947447447447446,0.7540040040040039,0.5003505589758794,0.4973437745260478,0.501297591433106
0.5042530568846358,0.6053553553553552,0.4794794794794794,1.0,0.7002964926661667,0.4860526361686171
0.5531632110579479,0.7785285285285284,0.6143643643643644,0.4344245426164606,0.559792106318782,0.6558417775607374
0.538809144072302,0.7750250250250249,0.6856856856856857,0.4235136125015261,0.5750056682421473,0.5024120550429915
0.5337586390217969,0.4947447447447446,0.7537537537537538,0.5002895163681392,0.497390864537733,0.501374330711408
0.5930356193514088,0.2632632632632632,0.4054054054054054,0.984463784292865,0.5434169907738459,0.5326577951410084
0.4486975013290802,0.4834834834834834,0.7512512512512513,0.5051118823796152,0.5020144060554267,0.8603031201492928
0.5337586390217969,0.4947447447447446,0.7540040040040039,0.5003348623053177,0.497390864537733,0.5013115440291609
0.2014885699096225,0.4316816816816816,0.5195195195195195,0.3156059786874095,1.0,0.5662765753352983
0.6089845826687932,0.5600600600600599,0.6263763763763763,0.4964891780176849,0.5028846992343513,1.0
0.3062200956937799,0.296046046046046,0.7467467467467467,0.0,1.0,1.0
0.2745879851143009,0.609109109109109,0.6456456456456456,0.2682212184104505,0.0,0.487287440919476
0.3139287612971824,0.5285285285285284,0.8183183183183182,0.0,1.0,1.0
0.1206804891015417,1.0,0.0,0.8789839021923016,0.6862566928859201,0.0
0.6172248803827751,0.507007007007007,0.6356356356356356,0.463634302457401,0.4660446134258855,0.0
0.544922913343966,0.3258258258258257,0.4136636636636637,0.2470237368540384,0.4574079564679003,0.5510926626785496
0.5350877192982456,0.3328328328328327,0.4219219219219219,1.0,0.5446535395992117,0.5756160943195493
0.4540138224348751,0.4416916916916916,0.8573573573573573,0.0,0.4245059908959311,0.3761445488951288
0.0762892078681552,0.0,0.4812312312312312,0.0,1.0,1.0
0.0627325890483785,0.3556056056056055,0.6796796796796796,0.1488672236077925,0.0,0.0
0.4130781499202551,0.5490490490490489,0.7359859859859859,0.4998779147845196,0.4982908069832743,0.9066205068280516
0.4758107389686337,0.7530030030030028,0.7222222222222222,1.0,0.6005528716186755,0.6384742836213964
0.5337586390217969,0.4947447447447446,0.7545045045045045,0.5003662556464412,0.4973594711966095,0.5012505014214207
0.5489101541733121,0.4086586586586586,0.5335335335335335,0.0,0.5878089191970282,0.465542319967909
0.5337586390217969,0.4947447447447446,0.7540040040040039,0.5003976489875648,0.4974519071454732,0.5013272406997227
0.0,0.3563563563563563,0.7905405405405405,0.0803320717861067,0.0,0.0
0.5225943646996278,0.4929929929929929,0.7545045045045045,0.5323979280394858,0.5165111533564714,0.1967560214172349
0.5366826156299841,0.6771771771771771,0.6744244244244244,0.4520972495945027,0.4788496084552732,1.0
0.442849548112706,0.4589589589589589,0.7442442442442442,0.5030521303870101,0.4994802657969548,0.3047857404468319
0.8027644869750132,0.3801301301301301,0.5492992992992993,0.6233828069135113,0.0,0.5631180564033695
0.4287612971823498,0.6806806806806805,0.6093593593593594,0.4637720843434431,0.4815808291330206,1.0
0.2485380116959064,0.0297797797797798,0.788038038038038,0.0,1.0,1.0
0.2123870281765018,0.0162662662662662,1.0,0.0448209707518705,1.0,0.6928335978513002
0.2496012759170653,0.3435935935935935,0.4301801801801801,0.5431414270017615,0.6639900936568011,0.5295899680834365
0.5090377458798512,0.6303803803803802,1.0,0.0,0.5167256745208155,0.394884629471371
0.6432748538011696,0.59009009009009,0.7665165165165164,0.4926591904006139,0.4954218044194848,0.0
0.863370547581074,0.3968968968968968,0.6726726726726726,0.4713256710326665,0.1403212585241641,0.5333292638261506
0.3149920255183413,0.3288288288288287,0.2432432432432432,0.7466278319409805,0.0,0.0
0.4944178628389155,0.609109109109109,0.6116116116116116,0.4880356488829203,0.5041055513891554,1.0
0.2807017543859649,1.0,0.2722722722722722,1.0,1.0,0.0
0.4619883040935673,0.518018018018018,0.7134634634634633,0.5021050979297835,0.4975129497532135,0.2239496311282418
0.532695374800638,0.5237737737737737,0.7207207207207207,0.5076006767009087,0.4931632279330973,0.0
0.5340244550770866,0.4947447447447446,0.7542542542542542,0.5003662556464412,0.497390864537733,0.5012051554842423
0.5568846358320042,0.3103103103103102,0.3360860860860861,0.0192441181087256,0.5763956956241171,0.5077977571201842
0.4287612971823498,0.4619619619619619,0.6168668668668669,0.5119643511170797,0.4962310549906692,0.0
0.6461988304093568,0.5052552552552552,0.7487487487487487,0.500076739278302,0.4987494985785792,0.7970333292638261
0.480595427963849,0.3588588588588588,1.0,0.0,0.403842196138619,0.0117969199644208
0.1278575225943646,0.7232232232232231,0.312062062062062,0.9964595287510682,0.3532082250553744,0.0
0.3833067517278044,0.4952452452452451,0.5978478478478478,0.5080576242217067,0.5017248896872875,0.0019690601182483
0.4877724614566719,0.4607107107107106,0.9451951951951952,0.555655161588503,0.0,0.0
0.5334928229665071,0.4949949949949949,0.7540040040040039,0.5003209097092628,0.4974065612082948,0.5013272406997227
0.5244550770866561,0.5908408408408408,0.9426926926926926,0.2414235136125015,0.5487730435844219,0.4844951776339885
0.5393407761828815,0.4361861861861861,0.4149149149149149,1.0,0.5321991035457034,0.6047037689450093
0.5337586390217969,0.4947447447447446,0.7540040040040039,0.5002738196975774,0.4974065612082948,0.5013115440291609
0.4888357256778309,0.7044544544544543,0.6066066066066066,1.0,0.6406735615745505,0.4748504456110365
0.5340244550770866,0.4949949949949949,0.7542542542542542,0.5003209097092628,0.497390864537733,0.5012818947625443
0.5337586390217969,0.4944944944944944,0.7540040040040039,0.5003976489875648,0.4974205138043497,0.5011284162059403
0.0770866560340244,1.0,0.2595095095095095,1.0,1.0,0.0
0.5337586390217969,0.4947447447447446,0.7540040040040039,0.500381952317003,0.4974065612082948,0.5011912028881874
0.5624667729930888,0.1103603603603602,1.0,0.4822819470847794,1.0,0.0
0.1626794258373206,0.3543543543543543,0.536036036036036,0.6256413833998988,0.0,0.2636273261593735
0.0087719298245614,0.3495995995995995,0.601101101101101,0.0316357674799867,0.9433978059542704,0.0
0.6727804359383307,0.5525525525525524,0.6826826826826826,0.3761898948323072,1.0,0.5056926591904006
0.6177565124933546,0.4987487487487486,0.4837337337337337,1.0,0.3589148368418299,0.9965205713588084
0.9880382775119616,0.3986486486486486,0.6028528528528528,0.5520850410729546,0.3021452116434414,0.4292516176291051
0.5619351408825093,0.7655155155155153,0.7597597597597596,0.0,0.421300381952317,0.4246280761114115
0.5337586390217969,0.4949949949949949,0.7540040040040039,0.500305213038701,0.4974065612082948,0.5012818947625443
0.467304625199362,0.8896396396396395,0.5715715715715716,1.0,0.5005947294068402,0.7264977239827686
0.5337586390217969,0.4949949949949949,0.7542542542542542,0.5003976489875648,0.4974205138043497,0.501374330711408
0.5337586390217969,0.4949949949949949,0.7540040040040039,0.5003348623053177,0.497390864537733,0.5012505014214207
0.4388623072833599,0.5533033033033032,0.5753253253253253,0.1726738406264715,1.0,0.574869630430612
0.4324827219564061,0.4682182182182181,0.7347347347347346,0.5227688926870956,0.5115056595217747,0.0801942899000645
0.5029239766081871,0.6218718718718718,0.8928928928928928,0.1272284912011441,0.5430350384568429,0.5660027556377208
0.5340244550770866,0.4949949949949949,0.7540040040040039,0.5003662556464412,0.4973751678671713,0.5013429373702845
0.5337586390217969,0.4949949949949949,0.7540040040040039,0.5002895163681392,0.497390864537733,0.5012365488253658
0.5422647527910686,0.6599099099099098,0.952202202202202,0.387224654237229,0.4527373249385213,0.3993860857735842
0.8726741095162148,0.4797297297297296,0.6661661661661662,0.7306189720424856,0.0,0.5404869456023161
0.5531632110579479,0.5360360360360359,0.8223223223223222,0.4706071123358389,0.3768317142508328,0.6265256291748784
0.53056884635832,0.5543043043043042,0.7540040040040039,0.5005947294068402,0.4979245513368331,0.5407921586410172
0.0,0.0475475475475475,0.2332332332332332,0.0,1.0,1.0
0.4457735247208931,0.6448948948948947,0.7655155155155156,0.6837068559568864,0.0,0.5081500601705705
0.0,0.6176176176176175,0.9974974974974976,0.0694821842789124,1.0,1.0
0.5882509303561935,0.6854354354354353,0.7940440440440439,0.4854718593578317,0.451685648010883,0.5157646894675341
0.2570441254651781,0.4056556556556556,0.4907407407407407,0.6222840399741877,0.1481957549226503,0.5318956345815093
0.5505050505050505,0.6836836836836836,0.9296796796796796,0.4521425955316811,0.5307044316933219,0.5356331862497166
0.5983519404572036,0.5865865865865865,0.6619119119119119,0.145998221044003,1.0,0.5146188325165251
0.130515683147262,0.6343843843843843,0.2602602602602603,0.9709594153862252,0.3311857962572161,0.0
0.5138224348750664,0.9394394394394392,0.6921921921921921,1.0,0.7305282801681288,0.5024417043096081
0.5348219032429559,0.4642142142142141,0.3258258258258258,0.0,0.5374801611524844,0.4670369918202905
0.2049441786283891,0.4009009009009008,0.525025025025025,0.5507717529692868,0.1620227776130596,0.5785164902244624
0.6259968102073366,0.6946946946946946,0.7735235235235235,0.2196156059786874,1.0,0.4536983099918028
0.195906432748538,0.4949949949949949,0.5945945945945945,0.5036311631232886,0.0,0.6743533843765805
0.6034024455077087,0.6116116116116115,0.5125125125125125,0.0,0.6214294434658248,0.3907180354744755
0.023391812865497,0.4772272272272271,0.3305805805805806,0.7510839423060153,0.0,0.0
0.2107921318447634,0.3303303303303302,0.5375375375375375,0.4655562725639639,0.610699897099604,0.4520048136456389
0.2344497607655502,0.4434434434434433,0.552052052052052,0.6112806739103894,0.0284755044735511,0.3274935905261873
0.5337586390217969,0.4947447447447446,0.7542542542542542,0.5002895163681392,0.4973141252594311,0.5013272406997227
0.5515683147262095,0.7282282282282281,0.9689689689689688,0.0001063885449186,0.5381359331670649,0.3674311526588416
0.9181286549707602,0.4194194194194193,0.6491491491491491,0.4610862096028742,0.1948480039067269,0.3402514955438896
0.5332270069112175,0.543043043043043,0.7697697697697696,0.0,0.4852276889268709,0.3920313235781433
0.662147793726741,0.6116116116116115,0.68993993993994,0.4902942253693078,0.503906726895373,1.0
0.6515151515151515,0.6654154154154153,0.803053053053053,0.2138322549139299,1.0,0.4674939393410886
0.0494417862838915,0.6504004004004003,0.2049549549549549,0.733350192720233,0.046774334199557,0.0
0.5337586390217969,0.4947447447447446,0.7540040040040039,0.5002895163681392,0.4974065612082948,0.5014039799780247
0.5337586390217969,0.4947447447447446,0.7540040040040039,0.5003976489875648,0.4973594711966095,0.5012661980919825
0.7283359914938863,0.4512012012012011,0.7585085085085085,0.6510351082198231,0.969677520623681,0.3487521146903395
0.5789473684210527,0.7379879879879878,0.914164164164164,0.0333449604967124,0.6338053961665242,0.5012505014214207
0.4120148856990962,0.4952452452452451,0.8718718718718719,0.287632767671835,0.0,0.0
0.5340244550770866,0.4947447447447446,0.7542542542542542,0.5004272982541814,0.4974205138043497,0.5011755062176256
0.5337586390217969,0.4947447447447446,0.7542542542542542,0.5003209097092628,0.497390864537733,0.501297591433106
0.5135566188197768,0.3636136136136135,0.3813813813813814,1.0,0.5540680537872578,0.6163786036939498
0.6528442317916002,0.563063063063063,0.6796796796796796,0.4876083506287388,1.0,0.432624657725378
0.4516214779372674,0.608108108108108,0.6519019019019019,0.4370197254826726,0.4630692223171774,1.0
0.582668793195109,0.4139139139139138,0.557057057057057,0.6852329211503916,0.0,0.3777770026335525
0.6414141414141414,0.523023023023023,0.7222222222222222,0.5074175488776881,0.505050839771875,0.9947956816715212
0.5680489101541734,0.3983983983983983,0.3258258258258258,0.0,0.3967002110330153,0.4402689362889582
0.0,1.0,0.1654154154154154,0.9772921499206446,0.8874374313270663,0.0
0.4691653375863902,0.6689189189189189,0.6891891891891891,0.563545354657551,0.0,0.3919249350332246
0.5574162679425837,0.3443443443443442,0.3313313313313313,0.0606763520937614,0.4231159635139613,0.4971309974362105
0.0116959064327485,0.9074074074074072,0.6844344344344344,0.3759317718052915,1.0,0.4356296981007028
0.5340244550770866,0.4947447447447446,0.7542542542542542,0.5003505589758794,0.4973751678671713,0.5012365488253658
0.601010101010101,0.4099099099099098,0.5377877877877878,0.7095906657132393,0.0,0.1372534314665922
0.1318447634237108,0.7870370370370369,0.2194694694694694,0.9024382161605944,0.3584875385876485,0.0
0.5337586390217969,0.4947447447447446,0.7537537537537538,0.5003505589758794,0.497390864537733,0.501297591433106
0.5337586390217969,0.4947447447447446,0.7537537537537538,0.5003348623053177,0.4973298219299928,0.5011598095470639
0.5337586390217969,0.4949949949949949,0.7540040040040039,0.5002598671015226,0.4973594711966095,0.501220852154804
0.5337586390217969,0.4947447447447446,0.7537537537537538,0.5003348623053177,0.4973437745260478,0.5012365488253658
0.7594364699627858,0.6313813813813813,0.8353353353353352,0.4513490416310585,1.0,0.5118265692310375
0.5042530568846358,0.8443443443443441,0.6468968968968969,0.5147112684653888,0.6370703036433716,0.5122085215480405
0.5340244550770866,0.4947447447447446,0.7542542542542542,0.5003348623053177,0.4973751678671713,0.5011598095470639
0.5986177565124934,0.5212712712712712,0.6483983983983983,0.5090186092749882,0.4875630046915604,0.0
0.5637958532695375,0.1143643643643643,1.0,0.004593892251077,0.9994959624675166,0.3794565463836615
0.0,0.0,0.5467967967967968,0.7401119695833406,0.4034305945549994,0.1602978879257722
0.158160552897395,0.6721721721721721,0.7692692692692692,0.0843765805675218,1.0,1.0
0.5340244550770866,0.4952452452452451,0.7540040040040039,0.500381952317003,0.4973437745260478,0.5011755062176256
0.6980329611908559,0.1976976976976976,1.0,0.0,0.7457278894954392,0.00352477457837
0.6666666666666667,0.4969969969969969,0.7467467467467467,0.4989622756684165,0.4987181052374557,0.9014004918290108
0.8556618819776715,0.4824824824824824,0.7302302302302301,0.5691002319619094,0.9993442279854196,0.576714861258873
0.4327485380116959,0.4537037037037036,0.730980980980981,0.5027172680816925,0.499007621605595,0.3111498683223747
0.6052631578947368,0.6961961961961961,0.3901401401401401,0.4005162460540314,0.4330676526501212,0.7106876885780561
0.5337586390217969,0.4947447447447446,0.7542542542542542,0.5002895163681392,0.4973594711966095,0.5013272406997227
0.1557682083997873,0.9171671671671672,0.2587587587587587,0.780888431553796,0.3727261628616775,0.0
0.5592769803296119,0.6428928928928928,0.8168168168168167,0.0,0.505432792088878,0.3826761079233305
0.5337586390217969,0.4949949949949949,0.7542542542542542,0.500305213038701,0.497467603816035,0.5013272406997227
0.6251993620414673,0.602102102102102,0.6714214214214214,0.1635645394771265,1.0,0.4824197289708216
0.1044657097288676,0.4577077077077076,1.0,0.0,0.7368296213614245,0.0
0.5337586390217969,0.4947447447447446,0.7540040040040039,0.500381952317003,0.4974362104749115,0.501297591433106
0.0,0.4006506506506506,0.9532032032032032,0.0,0.0,0.0
0.5664540138224349,0.502002002002002,0.5292792792792792,1.0,0.5024120550429915,0.7813296824040323
0.5135566188197768,0.4416916916916916,0.741991991991992,0.4995116591380784,0.4951165913807838,0.978711826569231
0.5385433280170122,0.3385885885885885,0.3508508508508509,0.0,0.4692188290283761,0.4187208957566667
0.0,1.0,0.0,1.0,0.4721192249332891,0.0
0.1868686868686868,0.3733733733733733,0.5397897897897898,0.4372028533058932,0.6817081465720216,0.5495822941556063
0.5502392344497608,0.4837337337337336,0.7072072072072071,0.5043026318084308,0.490888954776148,0.0007168146223207
0.3421052631578947,1.0,0.0112612612612613,1.0,0.8668817691891797,0.0
0.5629984051036683,0.6804304304304303,0.889139139139139,0.1444425065838812,0.5663533146136003,0.4097633290894187
0.3777246145667198,0.4854854854854854,0.5908408408408408,0.5154751730993948,1.0,0.6366290527931353
0.5337586390217969,0.4949949949949949,0.7540040040040039,0.500381952317003,0.4973437745260478,0.5012051554842423
0.5337586390217969,0.4949949949949949,0.7540040040040039,0.500305213038701,0.4973751678671713,0.5011755062176256
0.5029239766081871,0.649149149149149,0.5112612612612613,1.0,0.5460261262361128,0.8564434832656052
0.7634237107921319,0.5778278278278277,0.7985485485485484,0.3724366464935382,1.0,0.5190295969443814
0.5483785220627326,0.5032532532532532,0.7530030030030029,0.5036625564644122,0.5001831278232206,0.4943230374801611
0.0,0.0,0.8601101101101101,0.0,1.0,0.7132985681148298
0.5576820839978734,0.5247747747747746,0.7074574574574574,0.4968100877269477,0.5024574009801699,1.0
0.4114832535885167,0.5700700700700699,0.7417417417417417,0.4961229223712437,0.4943073408095993,0.9673579015295533
0.5707070707070707,0.8305805805805805,0.9582082082082082,0.0,0.4422536930777683,0.4822679944887245
0.1477937267410951,0.2682682682682682,0.7379879879879879,0.8415944329141741,0.0,0.0
0.245879851143009,0.4129129129129128,0.606106106106106,0.4833650173535413,0.0,0.5282173814465354
0.2522594364699628,0.4046546546546545,0.4924924924924925,0.5689484974798124,0.1019725482672619,0.4944608193662033
0.5337586390217969,0.4947447447447446,0.7540040040040039,0.5002441704309608,0.4973594711966095,0.5011598095470639
0.2129186602870813,0.4229229229229228,0.556056056056056,0.5704885152693723,0.0,0.4392015626907581
0.4053694843168527,0.5100100100100099,0.9997497497497496,0.0067914261297242,0.0178854840678793,0.2252768718279645
0.2076023391812865,0.5172672672672671,0.549049049049049,0.6800442994924742,0.0,0.485532901965572
0.6089845826687932,0.5390390390390389,0.6591591591591591,0.4937126114027591,0.5024730976507317,1.0
0.1068580542264752,0.5895895895895895,0.3155655655655656,0.0245548249821232,0.0,0.0
0.4944178628389155,0.4744744744744744,0.6811811811811811,0.5452482690060519,0.521898599508171,0.125015260651935
0.6275917065390749,0.6246246246246245,0.7457457457457457,0.501069117672707,0.4965362680293702,0.0826516908802344
0.8692185007974482,0.4201701701701701,0.5663163163163163,0.5710535954095959,0.2187156635331461,0.4662277412491061
0.5337586390217969,0.4947447447447446,0.7540040040040039,0.5002895163681392,0.4973298219299928,0.5012365488253658
0.0,0.5237737737737737,0.4439439439439439,0.8176046880722745,0.0,0.0
0.5574162679425837,0.6516516516516515,0.7872872872872873,0.0,0.5364127875542843,0.4614978111864939
0.2546517809675704,0.6106106106106105,0.7677677677677677,0.0,1.0,1.0
0.5077086656034024,0.5905905905905905,0.914164164164164,0.8266703873589479,0.4540663097127509,0.6400160454854631
0.6251993620414673,0.3108108108108107,1.0,0.0,0.4377365401049933,0.0001377818860421
0.4383306751727804,0.5385385385385384,0.7362362362362361,0.5035561679194935,0.4990529675427734,0.248122503793362
0.6578947368421053,0.5397897897897896,0.7572572572572571,0.5005807768107854,0.4978024661213527,0.7238275459127614
0.5337586390217969,0.4947447447447446,0.7542542542542542,0.500381952317003,0.4974065612082948,0.5013586340408462
0.2006911217437533,0.4574574574574573,0.592092092092092,0.5298498351849591,0.0,0.5026405288033905
0.2527910685805422,0.4602102102102101,0.5743243243243243,0.4303957305056072,1.0,0.5451261837905715
0.5927698032961191,0.3205705705705705,0.1881881881881881,0.987836824389138,0.5220817273313916,0.5930742801332473
0.1113769271664008,0.903153153153153,0.0905905905905906,0.9795664230775938,0.376739278301969,0.0
0.5366826156299841,0.4984984984984984,0.7530030030030029,0.500151734482097,0.497390864537733,0.5118876118387777
0.5337586390217969,0.4947447447447446,0.7540040040040039,0.5003348623053177,0.4973594711966095,0.5012365488253658
0.0,0.0,0.6323823823823823,0.0,1.0,1.0
0.5590111642743222,0.6846846846846846,0.6193693693693694,0.6769625198388475,0.0,0.3405567085825907
0.6435406698564593,0.5002502502502502,0.7257257257257257,0.5084692258053264,0.5080262308805832,1.0
0.4944178628389155,0.5402902902902902,0.98998998998999,0.1757573643546052,0.505814744405881,0.5479341437466209
0.5494417862838915,0.4051551551551551,0.4817317317317317,0.0,0.4688682700524966,0.5729912621867206
0.0890483785220627,0.9944944944944945,0.6288788788788788,0.6085337565620803,1.0,0.5260198475678881
0.5337586390217969,0.5615615615615615,0.6961961961961962,0.5010534210021452,0.4977257268430507,0.0002598671015225
0.513290802764487,0.7424924924924924,0.962212212212212,0.0,0.4651900169175227,0.4297242618204649
0.2456140350877192,0.4527027027027026,0.5678178178178178,0.5425920435320997,0.0275459127613931,0.5411427176168966
0.6323763955342903,0.5452952952952952,0.7342342342342342,0.5953328566196348,0.4982908069832743,0.6069169994942184
0.5824029771398193,0.5838338338338337,0.6834334334334333,0.4882030800355791,0.5031131729947503,1.0
0.5321637426900585,0.3628628628628628,0.4166666666666666,0.0,0.3269285103859637,0.2784606798402428
0.1722488038277512,0.3218218218218217,0.4859859859859859,0.6027957514345013,2.9649266616693648e-05,0.5439820709140695
0.5337586390217969,0.4947447447447446,0.7537537537537538,0.5002738196975774,0.497390864537733,0.5012365488253658
0.5821371610845295,0.3658658658658658,0.345095095095095,0.0,0.6138444634354779,0.5461325147810314
0.6156299840510366,0.5102602602602602,0.7512512512512513,0.5030067844498317,0.5013429373702845,0.8571149519507473
0.5334928229665071,0.4947447447447446,0.7542542542542542,0.5003209097092628,0.4973594711966095,0.501220852154804
0.654173312068049,0.5297797797797796,0.75,0.5008545965083628,0.496780438460331,0.0117812232938591
0.5337586390217969,0.4944944944944944,0.7540040040040039,0.500305213038701,0.497390864537733,0.5012505014214207
0.5340244550770866,0.4947447447447446,0.7540040040040039,0.5003348623053177,0.4973594711966095,0.5012505014214207
0.5340244550770866,0.4947447447447446,0.7540040040040039,0.5003505589758794,0.4973594711966095,0.5012051554842423
0.5337586390217969,0.4947447447447446,0.7540040040040039,0.5002895163681392,0.4973751678671713,0.5013115440291609
0.6350345560871877,0.5573073073073073,0.7127127127127126,0.5296370580951218,0.5206620506828051,0.99899366900954
0.3107389686337055,1.0,0.1388888888888889,1.0,0.7981024469365331,0.0
0.4569377990430622,0.4902402402402401,0.6551551551551551,0.5087901355145892,0.4925528018556953,0.0032806041474092
0.5337586390217969,0.4949949949949949,0.7542542542542542,0.5002895163681392,0.4974362104749115,0.5012818947625443
0.2931951089845827,0.5490490490490489,0.7152152152152151,0.4972234333850742,0.4964438320805064,0.9941242129863788
0.532695374800638,0.4912412412412411,0.7464964964964964,0.4662137886530512,0.5243263512217242,0.5223729877740377
0.6395534290271132,0.5405405405405405,0.6328828828828829,0.4889966339362017,0.5045485463138986,1.0
0.5975544922913344,0.569069069069069,0.7525025025025025,0.5018016289655894,0.4973594711966095,0.1276400927847638
0.2307283359914939,0.3058058058058057,0.3716216216216216,0.4709594153862253,0.6523937422606694,0.5281406421682334
0.5337586390217969,0.4947447447447446,0.7540040040040039,0.5003348623053177,0.4974065612082948,0.501297591433106
0.1780967570441254,0.8475975975975975,0.5813313313313313,0.0,1.0,0.9771247187679858
0.5489101541733121,0.5763263263263262,0.756006006006006,0.5030207370458866,0.500151734482097,0.3914505467673579
0.5542264752791068,0.7449949949949949,0.68993993993994,0.4770479794896838,0.4959868845597084,1.0
0.4175970228601807,0.6599099099099098,0.6301301301301301,0.4964891780176849,0.0,0.3292481294800914
0.5268474215842637,0.9837337337337336,0.8651151151151151,0.0,0.4400718558696828,0.3881856392905105
0.5624667729930888,0.5660660660660659,1.0,0.0,1.0,1.0
0.5337586390217969,0.4949949949949949,0.7542542542542542,0.5003348623053177,0.4974362104749115,0.501374330711408
0.6648059542796385,0.5918418418418417,0.8753753753753752,1.0,0.0981408165756841,0.497085651499032
0.5337586390217969,0.4947447447447446,0.7537537537537538,0.500305213038701,0.4973437745260478,0.5013272406997227
0.796916533758639,0.0057557557557557,1.0,0.2040811343460593,0.9328374348152152,0.0
0.9104199893673578,0.386136136136136,0.6896896896896896,0.7105202574253973,0.0,0.5665521391073827
0.5526315789473685,0.5212712712712712,0.6123623623623623,0.0495055548773043,1.0,0.6580393114393847
0.5808080808080808,0.5432932932932932,0.7510010010010009,0.5020597519926051,0.4978024661213527,0.22040915987931
0.5334928229665071,0.4947447447447446,0.7542542542542542,0.5003662556464412,0.497390864537733,0.5012365488253658
0.7538543328017012,0.5072572572572571,0.6696696696696697,0.5127422083471406,1.0,0.4107714041543855
0.6153641679957469,0.4824824824824824,0.6769269269269269,0.5038003383504543,0.4967961351308927,0.0
0.009037745879851,1.0,0.0,0.6512792786507839,0.9922179395503776,0.0
0.2721956406166932,1.0,0.1236236236236236,0.7191429617873275,1.0,0.0026858747405689
0.1757044125465178,0.396146146146146,0.5808308308308308,0.5033119974885327,0.0119957444582032,0.5401363866264367
0.5497076023391813,0.3868868868868868,0.277027027027027,0.0933794931719483,0.5070652458273017,0.4959554912185848
0.4556087187666135,0.4301801801801801,0.7555055055055054,0.5014336292446413,0.4983814988576312,0.5807436733697263
0.7301967038809144,0.5698198198198198,0.7575075075075075,0.3512705582782496,1.0,0.5175802710291784
0.5337586390217969,0.4947447447447446,0.7540040040040039,0.5002598671015226,0.497390864537733,0.5013115440291609
0.5337586390217969,0.4947447447447446,0.7540040040040039,0.500305213038701,0.4974362104749115,0.5012661980919825
0.6044657097288676,0.5327827827827827,0.6874374374374375,0.4965816139665486,0.5021364912709071,1.0
0.5762892078681553,0.3676176176176176,0.3718718718718719,0.0,0.5342902488794321,0.425512321886391
0.5337586390217969,0.4947447447447446,0.7540040040040039,0.5003209097092628,0.4974065612082948,0.5011912028881874
0.1406166932482722,1.0,0.0015015015015015,0.9998168721767792,0.5083628372604078,0.0
0.0,0.0,0.7822822822822822,0.0,1.0,1.0
0.4008506113769272,0.4914914914914914,0.9171671671671672,0.3324676910197603,0.0,0.0055705739749202
0.2589048378522063,0.5140140140140139,0.5783283283283283,0.2073617384934684,1.0,0.5808657585852067
0.5337586390217969,0.4949949949949949,0.7540040040040039,0.500305213038701,0.4973594711966095,0.5012505014214207
0.5380116959064327,0.2897897897897897,0.3731231231231231,0.1206498421612571,0.4473812721279453,0.463175610862096
0.6488569909622541,0.5285285285285284,0.5595595595595595,0.5365034794286412,0.0,0.3338577184017302
0.6985645933014354,1.0,1.0,1.0,0.1552017022167187,0.5333292638261506
0.208133971291866,0.4672172172172171,0.567067067067067,0.4208730836981356,1.0,0.7222718314526396
0.8506113769271664,0.4441941941941941,0.5578078078078078,0.5941730470725709,0.0,0.2601949875298672
0.5303030303030303,0.9989989989989988,0.9657157157157156,1.0,0.2418194185255594,0.7628041229921342
0.7998405103668262,0.4544544544544543,0.6769269269269269,0.5030678270575719,1.0,0.589259989186738
0.4686337054758107,0.5850850850850849,0.9076576576576576,0.0,1.0,1.0
0.5337586390217969,0.4949949949949949,0.7540040040040039,0.500381952317003,0.4974205138043497,0.5012365488253658
0.5337586390217969,0.4949949949949949,0.7540040040040039,0.5003348623053177,0.4973437745260478,0.5013115440291609
0.239766081871345,0.9929929929929928,0.7582582582582582,0.4503566632366534,1.0,0.3987460104295656
0.5542264752791068,0.7429929929929928,0.902152152152152,0.7865950433402515,0.4956206289132672,0.5667038735894797
0.5199362041467305,0.704204204204204,0.5858358358358358,1.0,0.7947904494480005,1.0
0.5231259968102073,0.569069069069069,0.7492492492492492,0.5015260651935051,0.4981844184383557,0.6243123986256693
0.5337586390217969,0.4947447447447446,0.7542542542542542,0.5003662556464412,0.497390864537733,0.5012365488253658
0.2456140350877192,0.4877377377377376,0.5480480480480481,0.5627831940980519,0.0663079686764218,0.5200673212759649
0.5539606592238171,0.4962462462462461,0.2312312312312312,0.0,0.4827406386800844,0.5315590282016848
0.5606060606060607,0.3688688688688688,0.4239239239239239,1.0,0.5393881786629925,0.6322182883652789
0.5645933014354068,0.5615615615615615,0.6196196196196195,0.4934073983640581,0.5026562254739523,1.0
0.5669856459330144,0.8933933933933933,0.9059059059059058,1.0,0.5754486631668905,0.4015539703856149
0.5289739500265817,0.551051051051051,0.831081081081081,0.1729337077279941,0.5143764061600712,0.6143641976385231
0.2073365231259967,0.3816316316316315,0.5808308308308308,0.4377365401049933,0.98791356366744,0.5048066693409142
0.6568314726209463,0.593093093093093,0.6251251251251251,0.1677293893995151,1.0,0.4364389486718872
0.5951621477937268,0.5002502502502502,0.4969969969969969,0.0,0.4462371592514432,0.3718872630238763
0.5337586390217969,0.4947447447447446,0.7542542542542542,0.5003209097092628,0.4973141252594311,0.501220852154804
0.5475810738968634,0.396146146146146,0.5665665665665666,0.0,0.3880635540750301,0.470059472940684
0.4399255715045189,0.6614114114114114,0.6656656656656657,0.4533477510159234,0.4701205155484242,1.0
0.4319510898458267,0.6053553553553552,0.939189189189189,0.0,1.0,1.0
0.0,0.0,0.972222222222222,0.4474719640023021,1.0,0.5015417618640668
0.0,0.4396896896896896,0.6996996996996997,0.308906988506549,0.0,0.0
0.5962254120148857,0.5500500500500499,0.6824324324324323,0.5047770200742976,0.4967193958525908,0.0
0.0,0.4732232232232231,0.5392892892892893,0.8537576085250362,0.0,0.0
0.9298245614035088,0.4942442442442442,0.7247247247247247,0.5894884629471371,0.1887751364738301,0.3345431396829272
0.5683147262094631,0.7607607607607606,0.864114114114114,0.0,0.6160263006435635,0.4001499904075902
0.5337586390217969,0.4947447447447446,0.7542542542542542,0.5004116015836196,0.4974519071454732,0.501220852154804
0.5337586390217969,0.4947447447447446,0.7537537537537538,0.5003976489875648,0.4973751678671713,0.5013115440291609
0.5717703349282297,0.6468968968968968,0.8923923923923923,0.0250571184400998,0.4726075657952108,0.4462057659103197
0.3125996810207336,0.5595595595595595,0.542042042042042,0.3630203882309852,1.0,0.5765317334356523
0.0364167995746942,0.4697197197197196,0.9612112112112112,0.0197481556412089,0.0,0.0
0.4688995215311005,0.537037037037037,0.7565065065065064,0.5001674311526588,0.4974205138043497,0.4310061565830092
0.5372142477405635,0.7327327327327327,0.8028028028028027,0.0,0.4620471946561557,0.3319793501578387
0.5337586390217969,0.4949949949949949,0.7540040040040039,0.5003209097092628,0.4973594711966095,0.5013429373702845
0.2286018075491759,0.343093093093093,0.4231731731731731,0.5182517397143206,0.696907755899332,0.507736714512444
0.2658160552897395,0.4747247247247246,0.5788288288288288,0.3403282348221916,1.0,0.4445419188307724
0.1759702286018075,0.2957957957957957,0.511011011011011,0.5408688979193191,0.5494898582067426,0.5786525280359976
0.0,0.4967467467467467,0.9529529529529528,0.0001220852154804,0.0,0.0
0.5340244550770866,0.4947447447447446,0.7540040040040039,0.5002895163681392,0.4973751678671713,0.5011912028881874
0.4898989898989899,0.9574574574574573,0.5382882882882882,0.4659225282104051,1.0,0.98791356366744
0.0,0.8563563563563562,0.6866866866866866,0.5303835219840591,0.0,0.0
0.5249867091972356,0.557057057057057,0.586086086086086,0.3819889425676265,1.0,0.5388998378010709
0.5337586390217969,0.4949949949949949,0.7547547547547546,0.500228473760399,0.4974205138043497,0.501220852154804
0.6073896863370547,0.5578078078078077,0.7545045045045045,0.5276523013063118,0.5178087447895774,0.8590979646650505
0.5691121743753322,0.5660660660660659,0.5412912912912913,0.0,1.0,0.4818703455011598
0.5337586390217969,0.4947447447447446,0.7542542542542542,0.5003209097092628,0.497390864537733,0.5012661980919825
0.4787347155768208,0.5290290290290289,0.7192192192192192,0.4921255036015138,0.5024730976507317,1.0
0.5396065922381712,0.3708708708708708,0.3235735735735736,1.0,0.5898704152641401,0.5497950712454436
0.690855927698033,0.6246246246246245,0.7374874874874874,0.3177424699583166,1.0,0.4839754434309433
0.3814460393407762,0.5302802802802802,0.7437437437437437,0.5411584142874584,0.4983971955281929,0.9081151786804332
0.2666135034556087,0.996246246246246,0.5232732732732732,0.2447965537087744,1.0,0.2147478940300329
0.4194577352472089,0.9947447447447446,0.4141641641641641,0.532917662242531,1.0,0.7466417845370354
0.333599149388623,0.1901901901901901,1.0,0.0,0.3168268308422136,0.4261541413049166
0.5337586390217969,0.4947447447447446,0.7540040040040039,0.5002895163681392,0.4973437745260478,0.5012505014214207
0.5390749601275917,0.8408408408408408,1.0,1.0,0.6897361215271116,0.4915307741946736
0.6443381180223285,0.5325325325325324,0.6083583583583583,0.1672113992709768,1.0,0.5123149100929592
0.2788410419989367,0.5645645645645645,0.75,0.5010220276610217,0.49801524321119,0.8768927568585729
0.6897926634768741,0.6168668668668668,0.6596596596596596,0.4871200097668172,0.50352477457837,1.0
0.5728335991493886,0.3673673673673673,0.3793793793793794,0.0,0.4107243141427001,0.4792001674311527
0.684742158426369,0.5793293293293292,0.7137137137137137,0.5347489404747371,0.5228456319653976,0.9602316130945112
0.5369484316852738,0.4929929929929929,0.72997997997998,0.5002441704309608,0.497085651499032,0.513779932678724
0.2280701754385964,0.5110110110110109,0.5377877877877878,0.3387411270209463,1.0,0.3850724662957601
0.5337586390217969,0.4947447447447446,0.7537537537537538,0.5003505589758794,0.4973594711966095,0.5012365488253658
0.4763423710792132,0.6218718718718718,0.6776776776776776,1.0,0.4756126061705356,0.8444477388074019
0.2918660287081339,0.4984984984984984,0.602102102102102,0.3337356331862497,1.0,0.6089314055496451
0.0,0.6971971971971971,0.284034034034034,0.1911540541011912,0.0,0.0
0.6440723019670388,0.5467967967967967,0.6659159159159158,0.4176378254879048,1.0,0.6255489474510352
0.6270600744284955,0.797047047047047,0.5795795795795795,0.529392887664161,0.573800512757905,0.5128485968920592
0.4279638490164806,0.5445445445445445,0.6431431431431431,0.5608141339798036,1.0,0.566140537523763
0.0,0.0,0.7352352352352352,0.0,1.0,0.9996790902907372
0.5337586390217969,0.4949949949949949,0.7540040040040039,0.500305213038701,0.4974205138043497,0.5012661980919825
0.564327485380117,0.3856356356356356,0.2417417417417418,0.0,0.5419816174546976,0.5454610460958892
0.1772993088782562,0.4066566566566565,0.4667167167167167,0.5060432181662801,0.0336641261314684,0.5108498875071943
0.5699096225412015,0.3676176176176176,0.3108108108108108,0.0,0.5069135113452047,0.5808204126480283
0.9178628389154704,0.3058058058058057,0.6281281281281281,0.5049897971641348,0.0,0.5907546610391196
0.5337586390217969,0.4949949949949949,0.7545045045045045,0.5003662556464412,0.497467603816035,0.5013115440291609
0.0,0.0060060060060059,0.5508008008008007,0.4843730924185081,0.2126881420374278,0.0001220852154804
0.4215842636895268,0.5152652652652652,0.5432932932932932,0.4849538692292934,1.0,0.4841742679247257
0.5340244550770866,0.4947447447447446,0.7540040040040039,0.5002895163681392,0.4973141252594311,0.5013586340408462
0.3466241360978203,0.4819819819819819,0.5242742742742742,0.4581090744196592,1.0,0.545858695083454
0.5385433280170122,0.5182682682682682,0.7530030030030029,0.5030207370458866,0.4999093081256431,0.4810000523222352
0.6677299308878256,0.5965965965965965,1.0,0.0,0.4707762875630047,0.3619216212916616
0.5730994152046783,0.604104104104104,0.7497497497497497,0.5011755062176256,0.4967961351308927,0.1003697437954549
0.6911217437533227,0.6944444444444443,0.6606606606606606,0.0939899192493503,1.0,0.2804907825662313
0.31632110579479,0.5345345345345345,0.874124124124124,0.0,1.0,1.0
0.7395002658160553,0.4356856856856856,0.6706706706706707,0.5014039799780247,0.5085163158170117,1.0
0.0,1.0,0.0,0.994094563719762,0.2679160053717495,0.0
0.5385433280170122,0.7452452452452452,0.6716716716716716,0.4198807053037305,0.5924185081186668,0.5875961421071908
0.5991493886230729,0.6273773773773773,0.5017517517517517,1.0,0.3305457209131974,0.8862933184505641
0.8665603402445508,0.4419419419419418,0.7172172172172171,0.7282993529483579,0.0,0.4463592444669236
0.5143540669856459,0.5150150150150149,0.4204204204204204,1.0,0.6290283760922266,0.5725186179953607
0.5265816055289739,0.4767267267267266,0.7367367367367367,0.467692763834871,0.4106493189389051,0.5036782531349739
0.52046783625731,0.5653153153153152,0.6544044044044044,0.0,0.4544168686886304,0.3188412368976403
0.5055821371610846,1.0,0.4932432432432432,1.0,0.4685177110766172,0.6327362784938173
0.4824561403508772,0.8335835835835834,0.6831831831831832,0.4123724645516856,0.6042764706908279,0.5199452360604845
0.5834662413609782,0.4704704704704704,0.3793793793793794,1.0,0.6988314700804018,0.8365121998011755
0.5337586390217969,0.4949949949949949,0.7545045045045045,0.5003505589758794,0.4974065612082948,0.501220852154804
0.5582137161084529,0.4719719719719719,0.4059059059059059,1.0,0.6954270366430054,0.530856166175419
0.4726209463051568,0.5718218218218217,0.5052552552552553,0.5816907058269529,0.0,0.1525297800722047
0.1584263689526847,0.3853853853853853,0.9852352352352352,0.0,0.00405846137747,0.0773113347402201
0.6483253588516746,0.5645645645645645,0.6904404404404404,0.5334060031044526,0.5247536494759056,0.964687723459546
0.0,1.0,0.1148648648648649,1.0,0.933081605246176,0.0
0.4875066454013822,0.5177677677677677,0.7542542542542542,0.5255158100354047,0.5116591380783787,0.341365959153775
0.5340244550770866,0.4947447447447446,0.7537537537537538,0.5003505589758794,0.497390864537733,0.5013272406997227
0.6395534290271132,0.597097097097097,0.6581581581581581,0.3737638871932609,1.0,0.4220782391823778
0.0778841041998936,0.6899399399399399,0.255005005005005,0.8480353000680189,0.0,0.0
0.5334928229665071,0.4949949949949949,0.7545045045045045,0.5003209097092628,0.497390864537733,0.501297591433106
0.5337586390217969,0.4947447447447446,0.7542542542542542,0.5003348623053177,0.4974065612082948,0.5012661980919825
0.0699096225412014,0.929179179179179,0.8308308308308308,0.3059002040567173,1.0,0.414937998151281
0.1618819776714514,0.4534534534534534,0.5275275275275275,0.8885658475330066,0.0,0.0
0.5340244550770866,0.4947447447447446,0.7537537537537538,0.5003348623053177,0.4973594711966095,0.501297591433106
0.5744284954811271,0.5302802802802802,0.741991991991992,0.500838899837801,0.4961996616495456,0.0
0.2780435938330675,0.3998998998998998,0.5355355355355355,0.6000331374156304,0.0,0.485150949648569
0.6892610313662946,0.912162162162162,1.0,1.0,0.2042939114358965,0.2489771003017248
0.2166400850611377,0.3395895895895895,0.5175175175175175,0.4912866037637128,0.5760590892442925,0.5206934440239287
0.5337586390217969,0.4947447447447446,0.7542542542542542,0.5004116015836196,0.4974205138043497,0.501220852154804
0.4051036682615629,0.557057057057057,0.5823323323323323,0.0013272406997227,1.0,0.4466034148978844
0.607123870281765,0.6486486486486486,0.6376376376376376,0.4936201754538954,0.5077070652458273,1.0
0.44896331738437,0.559059059059059,0.7587587587587588,0.5039224235659348,0.501220852154804,0.4740115457732354
0.2105263157894736,0.3468468468468467,0.5362862862862863,0.5049897971641348,0.7013499136683119,0.4203393968990355
0.4763423710792132,0.4924924924924924,0.535035035035035,0.2367842754242461,1.0,0.4618187208957566
0.3011695906432748,0.4924924924924924,0.6146146146146145,0.5923417688403648,1.0,0.527179657114952
0.0225943646996278,1.0,0.2257257257257257,0.7042939114358966,1.0,0.0
0.0,0.4889889889889889,0.7219719719719719,0.1013307288487364,0.0,0.0
0.5855927698032961,0.4156656656656656,0.3958958958958959,0.0,0.5478887978094424,0.5054624413554947
0.5013290802764487,0.4659659659659659,0.9004004004004003,0.7101853951200795,0.5273924342047892,0.6243734412334094
0.5834662413609782,0.5155155155155154,0.7427427427427427,0.5030364337164484,0.4976036416275703,0.1810977204946195
0.5334928229665071,0.4947447447447446,0.7540040040040039,0.5002738196975774,0.4972984285888693,0.5013272406997227
0.588782562466773,0.5818318318318317,0.9917417417417416,0.9225526274482444,0.4769712402113818,0.5998814029335333
0.5925039872408293,0.4597097097097096,0.5825825825825826,0.596463016900082,0.0,0.3034881490137259
0.4106858054226475,0.5122622622622621,0.6268768768768769,0.5079041456651028,0.4882798193138811,0.0
0.5340244550770866,0.4947447447447446,0.7540040040040039,0.5003976489875648,0.4974362104749115,0.5012661980919825
0.52046783625731,0.6739239239239239,0.9864864864864864,0.0969670544325653,0.4838551022899698,0.4649615431571237
0.5563530037214248,0.6396396396396395,1.0,0.952233287406038,0.5023039224235659,0.6390550604321816
0.6286549707602339,0.522022022022022,0.7409909909909909,0.5015871078012453,0.49899366900954,0.6405043863473847
0.5337586390217969,0.4949949949949949,0.7540040040040039,0.5003662556464412,0.4974065612082948,0.5013429373702845
0.5603402445507709,0.3358358358358357,0.3138138138138138,0.5261419327833685,0.5951968188080995,0.5108202382405777
0.5462519936204147,0.349099099099099,0.0625625625625626,0.9811988768160176,0.5942340896803111,0.6368261332124108
0.5026581605528974,0.4999999999999999,0.7635135135135135,0.5020597519926051,0.4338298132096203,0.549611943422223
0.5337586390217969,0.4947447447447446,0.7540040040040039,0.5003348623053177,0.4973594711966095,0.5011912028881874
0.1384901648059542,0.0,1.0,0.0,1.0,0.8366499816872177
0.5031897926634769,0.2550050050050049,0.2477477477477477,0.8486143328042974,0.6015295533425188,0.5554877304358442
0.5417331206804891,0.5445445445445445,0.7114614614614614,0.0,0.6123637441791513,0.4146170884420182
0.5334928229665071,0.4949949949949949,0.7540040040040039,0.5003348623053177,0.497390864537733,0.5013115440291609
0.4343434343434343,0.4431931931931931,0.7392392392392392,0.4902035334949509,0.4903866613181715,0.6799693042886792
0.51010101010101,0.3063063063063062,0.307057057057057,1.0,0.5652702443448384,0.5679561190854073
0.2493354598617757,0.3853853853853853,0.5780780780780781,0.4343791966792821,0.7437884786438077,0.5224479829778328
0.2623604465709729,0.4997497497497496,0.5380380380380381,0.392047020248705,1.0,0.5665817883739993
0.8474215842636896,0.3976476476476476,0.6026026026026026,0.5735563423269442,0.0,0.4506618762753545
0.5454545454545454,0.3018018018018017,0.2977977977977978,0.1959764201126672,0.4898215811779479,0.5753579712925336
0.5337586390217969,0.4947447447447446,0.7542542542542542,0.5003505589758794,0.4974065612082948,0.5011912028881874
0.5555555555555556,0.3325825825825825,0.3038038038038038,1.0,0.644763416293144,0.6332246193557389
0.6185539606592239,0.5638138138138137,0.7337337337337337,0.5356192336536617,0.5222648551546122,0.7982088354814518
0.5494417862838915,0.5392892892892892,0.7627627627627627,0.5027626140188709,0.4961839649789839,0.0
0.5340244550770866,0.8976476476476476,0.5818318318318318,1.0,0.5542215323438617,0.6768247379528053
0.5576820839978734,0.6193693693693693,0.7767767767767767,0.0,0.5452622216021068,0.3946090656992866
0.3920786815523657,0.4702202202202201,0.6689189189189189,0.5046235415176936,0.4929957967804385,0.0003505589758794
0.1307814992025518,1.0,0.0015015015015015,1.0,0.4418263948235869,0.0
0.9237107921318448,0.4567067067067066,0.6569069069069069,0.4447407433245548,0.8810890001220852,0.4970699548284703
0.5746943115364168,0.2077077077077076,1.0,0.0872141897901878,0.4665033050211905,0.0
0.543859649122807,0.7499999999999999,0.7054554554554554,0.2118631947956816,0.6204684584125434,0.5599281441303172
0.5528973950026581,0.5883383383383383,0.9356856856856856,0.2617820953311126,0.4980309398817517,0.4968868270052496
0.5337586390217969,0.4947447447447446,0.7542542542542542,0.5003348623053177,0.4973437745260478,0.5011912028881874
0.5738968633705476,0.7855355355355353,0.6428928928928929,0.0,0.5710832446762125,0.3949910180162896
0.5340244550770866,0.4949949949949949,0.7540040040040039,0.500305213038701,0.4973141252594311,0.501297591433106
0.9175970228601809,0.392142142142142,0.7367367367367367,0.4316165826604112,0.4700280795995605,0.5005493834696618
0.5337586390217969,0.4947447447447446,0.7540040040040039,0.5003348623053177,0.4973751678671713,0.5012051554842423
0.200956937799043,0.4411911911911911,0.5543043043043043,0.2469940875874217,1.0,0.4665172576172454
0.5340244550770866,0.4949949949949949,0.7540040040040039,0.5003209097092628,0.4973298219299928,0.5012365488253658
0.5401382243487507,0.6423923923923922,0.9994994994994996,1.0,0.3531628791181959,0.4371557632942079
0.1422115895800106,0.6811811811811811,0.1691691691691692,1.0,0.1913389259989186,0.0
0.6597554492291334,0.5775775775775774,0.6589089089089089,0.4915604234612902,0.5038770776287563,1.0
0.3136629452418926,0.5487987987987987,0.7472472472472472,0.5000906918743568,0.4958177093325427,0.8934196068856062
0.2501329080276449,0.4259259259259258,0.5492992992992993,0.6617315171704135,0.0,0.508347140589846
0.5725677830940988,0.2635135135135135,0.2162162162162162,0.5947695205539181,0.546469121160856,0.5241571759945585
0.2402977139819245,0.3998998998998998,1.0,0.0,0.0747161518740081,0.1761986152048416
0.6866028708133971,0.1181181181181181,1.0,0.0204178802518443,0.6090831400317421,0.3981966269599037
0.5029239766081871,0.5385385385385384,1.0,0.8051206027521496,0.5261872787205469,0.6806861189109998
0.0,1.0,0.0938438438438438,0.9841899645952876,1.0,0.0
0.4763423710792132,0.5685685685685685,0.7702702702702702,0.5033119974885327,0.500076739278302,0.3110120864363326
0.5334928229665071,0.4947447447447446,0.7542542542542542,0.5003505589758794,0.4974362104749115,0.5012818947625443
0.8923444976076556,0.4424424424424423,0.6654154154154154,0.537434815215306,0.4959868845597084,0.440666585276523
0.5053163211057948,0.5708208208208208,0.872122122122122,0.3622425310009243,0.4888292027835429,0.4507386155536564
0.4141414141414141,0.5422922922922921,0.7082082082082082,0.5092941730470726,0.4906151350785706,0.0
0.4471026049973418,0.5357857857857857,0.6896896896896896,0.5039991628442367,0.4983361529204527,0.0787903099220398
0.5337586390217969,0.4947447447447446,0.7542542542542542,0.5003209097092628,0.4973751678671713,0.5012661980919825
0.4274322169059011,0.5648148148148147,0.6921921921921921,0.4905540924708303,0.5024260076390463,1.0
0.4460393407761829,0.5117617617617617,0.7177177177177176,0.5065629523693252,0.4921255036015138,0.0
0.5047846889952153,0.6103603603603602,1.0,1.0,0.5701222596229311,0.5807436733697263
0.6116427432216907,0.4959959959959959,0.7254754754754754,0.4965205713588084,0.500687165355704,0.9816261750701988
0.705209994683679,0.4054054054054053,1.0,0.0,0.6915517030887559,0.0066222509025586
0.5624667729930888,0.8733733733733733,0.6989489489489489,1.0,0.5487276976472435,0.7450860700769137
0.4518872939925571,0.4894894894894894,0.7642642642642642,0.500763904634006,0.4978792053996547,0.3573137764445297
0.1156299840510366,0.3986486486486486,0.522022022022022,0.5264314491515077,1.5696670561837767e-05,0.5214713012539895
0.1536416799574694,0.7379879879879878,0.0958458458458458,0.6000174407450687,0.2793920156269076,0.0
0.5340244550770866,0.4947447447447446,0.7542542542542542,0.500305213038701,0.497390864537733,0.5013115440291609
0.4763423710792132,0.5142642642642642,0.6511511511511511,0.5116748347489405,0.5033573434257111,0.0072483736505223
0.2105263157894736,0.3851351351351351,0.4807307307307307,0.5663690112841621,0.3254024451924586,0.5494759056106877
0.5340244550770866,0.4947447447447446,0.7545045045045045,0.5002738196975774,0.4973437745260478,0.501297591433106
0.2945241892610313,0.0863363363363363,1.0,0.3904599124474597,1.0,0.0008249472417461
0.5334928229665071,0.4947447447447446,0.7542542542542542,0.5003209097092628,0.4974362104749115,0.5011755062176256
0.4901648059542796,0.4421921921921921,1.0,0.0,0.0141322357291103,0.1016812878246158
0.5619351408825093,0.6353853853853852,0.9857357357357356,1.0,0.4199888379231561,0.3710326665155136
0.1347687400318979,0.4481981981981981,1.0,0.0,0.0,0.0
0.9074960127591708,0.3908908908908908,0.6761761761761761,0.4147234769869369,0.2582555766782357,0.3334757660847272
0.5337586390217969,0.4947447447447446,0.7540040040040039,0.5003505589758794,0.4974065612082948,0.5012505014214207
0.8936735778841043,0.4261761761761761,0.7492492492492492,0.588053089627989,0.2430402706803635,0.4600781345379074
0.1855396065922381,0.6804304304304303,0.7184684684684685,0.0,1.0,1.0
0.6414141414141414,0.8576076076076075,0.1886886886886886,0.992491759247955,0.9838237089488464,0.3654306991994698
0.6174906964380649,0.5610610610610609,0.6891891891891891,0.4976960775764341,0.5018609274988227,1.0
0.5337586390217969,0.4947447447447446,0.7540040040040039,0.5003348623053177,0.4973594711966095,0.5012365488253658
0.5334928229665071,0.4947447447447446,0.7540040040040039,0.500305213038701,0.4974362104749115,0.5013115440291609
0.3615098351940457,0.7712712712712712,0.7164664664664664,0.4051083942306015,0.4874252228055182,1.0
0.5361509835194046,0.054054054054054,1.0,0.006653644243682,1.0,0.0
0.4627857522594364,0.4979979979979979,0.7454954954954954,0.5449884019045294,0.522509025585573,0.1764131363691857
0.5701754385964912,0.2670170170170169,0.2337337337337337,0.6280987843800687,0.5513054397683869,0.4866473655754574
0.0,0.985985985985986,0.3388388388388388,1.0,0.4905697891413921,0.0
0.5340244550770866,0.4947447447447446,0.7537537537537538,0.5002895163681392,0.4973298219299928,0.501297591433106
0.5337586390217969,0.4949949949949949,0.7540040040040039,0.5003209097092628,0.4973594711966095,0.5012051554842423
0.5340244550770866,0.4947447447447446,0.7540040040040039,0.500305213038701,0.4974065612082948,0.5011441128765021
0.5116959064327485,0.5455455455455455,0.9614614614614614,0.0,1.0,1.0
0.6217437533227007,0.5390390390390389,0.7439939939939939,0.4978338594624762,0.4984128921987547,0.969829255105778
0.5579479000531632,0.6666666666666665,1.0,0.117050072379092,0.0,0.0020144060554267
0.6605528973950027,0.5903403403403402,0.7262262262262262,0.0716954148281214,1.0,0.6748556778345571
0.4399255715045189,0.4827327327327326,0.6694194194194194,1.0,0.2651237420862619,0.5736330816052462
0.5337586390217969,0.4949949949949949,0.7542542542542542,0.5003505589758794,0.4974362104749115,0.5012661980919825
0.0,1.0,0.006006006006006,1.0,0.9812895686903744,0.0
0.2567783094098884,0.3723723723723723,0.4679679679679679,0.5903744527966235,0.374984739348065,0.440743324554825
0.3697501329080276,0.5963463463463462,0.7362362362362361,0.4984582381359331,0.4969635662835516,0.9558661946038334
0.5334928229665071,0.4949949949949949,0.7542542542542542,0.5002738196975774,0.4974205138043497,0.501297591433106
0.0,0.4564564564564564,0.8253253253253252,0.4307776828226102,0.0,0.0
0.0,0.9514514514514512,0.0983483483483483,0.6068245635453546,0.9873938294643948,0.0
0.5430622009569378,0.5513013013013012,0.7467467467467467,0.5007168146223206,0.4975879449570086,0.3709105813000331
0.4872408293460925,0.648148148148148,0.7349849849849849,0.4636482550534558,0.4853201248757346,1.0
0.5337586390217969,0.4947447447447446,0.7537537537537538,0.5003209097092628,0.4973751678671713,0.501374330711408
0.6392876129718235,0.599099099099099,0.7702702702702702,0.5191063362226834,0.5007325112928824,0.3041753143694299
0.6267942583732058,1.0,0.9612112112112112,1.0,0.2077593874810331,0.552589078605438
0.6711855396065922,0.4902402402402401,0.7444944944944945,0.5005040375324834,0.4994959624675166,0.953302405078745
0.0544922913343965,0.3753753753753753,1.0,0.0,0.0,0.0
0.6419457735247209,0.6363863863863863,0.6141141141141141,0.4885553830859654,0.5063030852678027,1.0
0.5337586390217969,0.4949949949949949,0.7542542542542542,0.5003662556464412,0.4974205138043497,0.5013272406997227
0.6358320042530569,0.412162162162162,0.6614114114114114,0.5047613234037358,0.4984128921987547,0.0
0.4593301435406698,0.6559059059059058,0.6621621621621621,0.6164692955683067,0.0,0.4209201737098209
0.4223817118553961,0.5210210210210209,0.7437437437437437,0.5003662556464412,0.4969792629541134,0.8064338908558173
0.3516746411483253,0.6413913913913912,0.8606106106106105,0.0,1.0,1.0
0.5483785220627326,0.5492992992992992,0.982232232232232,0.6706297853044282,0.5469574620227776,0.6453581456999843
0.4577352472089314,0.674174174174174,0.8948948948948948,0.0,0.0919912098644854,0.1636255820848667
0.2698032961190856,0.4419419419419418,0.5485485485485485,0.3202905628128433,1.0,0.4765596386277622
0.5337586390217969,0.4947447447447446,0.7540040040040039,0.5002895163681392,0.497467603816035,0.5012505014214207
0.6065922381711856,0.5648148148148147,0.7289789789789789,0.5015260651935051,0.4955892355721436,0.0572579660603101
0.6719829877724615,0.533033033033033,0.6811811811811811,0.2036991820290563,1.0,0.5711756806250763
0.8110047846889952,0.4464464464464464,0.5462962962962963,0.4763154681968014,0.5377243315834452,0.4905994384080088
0.9359383306751728,0.4241741741741741,0.6846846846846846,0.4858538116748347,0.6562690758149188,0.4363029108603519
0.1650717703349282,1.0,0.6226226226226226,0.973568550848492,1.0,0.0
0.0034556087187666,0.7492492492492491,0.5157657657657657,0.5706716430925929,0.2865183040619495,0.0
0.57150451887294,0.7912912912912912,0.861111111111111,0.0,0.53062769241502,0.4151350785705565
0.773524720893142,0.4677177177177176,0.519019019019019,1.0,0.0,0.5761654777892111
0.501063264221159,0.5427927927927927,0.6383883883883883,0.5048677119486544,0.4897744911662626,0.0
0.3104731525784157,0.2424924924924924,0.9532032032032032,0.0,0.7317787815895496,0.0001377818860421
0.5627325890483785,0.7407407407407406,0.7987987987987988,0.0,0.4138235345413956,0.4302126026823866
0.6124401913875598,0.6151151151151151,0.6519019019019019,0.3216631494497445,1.0,0.5110783612675933
0.6041998936735778,0.5550550550550549,0.7462462462462462,0.4909203481172716,0.4902645761026911,0.096768229938783
0.9229133439659756,0.5215215215215214,0.7577577577577577,0.5839021923016551,0.9541116556499294,0.5948759090988367
0.4043062200956938,0.5302802802802802,0.6293793793793794,0.4369429862043706,1.0,0.6884995727017458
0.5162147793726741,0.5382882882882882,0.5115115115115115,0.1245426164605751,1.0,0.7524408322723546
0.5340244550770866,0.4947447447447446,0.7540040040040039,0.5003209097092628,0.497390864537733,0.5012661980919825
0.531632110579479,0.6501501501501501,0.9354354354354354,0.1033154856375464,0.4708059368296213,0.4512112597450163
0.2732589048378522,0.4584584584584584,0.571071071071071,0.3084169035701205,1.0,0.6011632976960776
0.2227538543328017,0.36011011011011,0.9609609609609608,0.1742609484277168,0.0,0.0371592514432216
0.603136629452419,0.5425425425425424,0.6834334334334333,0.5017702356244659,0.4953764584823064,0.0
0.0451887293992557,0.4697197197197196,0.926176176176176,0.0,1.0,1.0
0.5340244550770866,0.4947447447447446,0.7542542542542542,0.5002895163681392,0.497390864537733,0.501297591433106
0.5337586390217969,0.4947447447447446,0.7542542542542542,0.5002895163681392,0.497390864537733,0.5012505014214207
0.4396597554492291,0.588088088088088,0.6821821821821821,0.6777246803983465,0.0,0.2770880932033416
0.4351408825093035,0.4744744744744744,0.7294794794794794,0.5048834086192162,0.500915639116103,0.2720965519646999
0.5029239766081871,0.7447447447447446,0.7427427427427427,1.0,0.492263285487556,0.56575858520676
0.5340244550770866,0.4949949949949949,0.7542542542542542,0.5003662556464412,0.4973751678671713,0.5012365488253658
0.5473152578415736,0.6133633633633633,0.3721221221221221,0.0,0.5607373947015016,0.3532989169297312
0.5337586390217969,0.4947447447447446,0.7540040040040039,0.5002738196975774,0.4973437745260478,0.5012365488253658
0.5337586390217969,0.4947447447447446,0.7537537537537538,0.5003662556464412,0.497390864537733,0.5012505014214207
0.4606592238171185,0.5130130130130129,0.7367367367367367,0.5406700734255367,0.5182831330554442,0.0
0.5664540138224349,0.7752752752752752,0.7467467467467467,0.5465755097057746,0.5654830214346757,0.5118422659015993
0.8197767145135566,0.4749749749749749,0.6238738738738738,0.600293004517153,0.5386103214329316,0.4800547639395155
0.5340244550770866,0.4947447447447446,0.7540040040040039,0.5003209097092628,0.4974065612082948,0.5013115440291609
0.6722488038277512,0.577077077077077,0.6801801801801801,0.4949631128241799,0.5063484312049811,1.0
0.569377990430622,0.5535535535535534,0.587087087087087,0.3506740847969025,1.0,0.4593159739784083
0.722488038277512,0.5850850850850849,0.511011011011011,0.0224479829778327,1.0,0.4398276854387219
0.5624667729930888,0.633133133133133,0.869119119119119,0.0185726494235833,0.4866927115126358,0.4452290841864764
0.5334928229665071,0.7372372372372371,0.6026026026026026,1.0,0.7389050700245914,0.5542511816104784
0.5334928229665071,0.4947447447447446,0.7542542542542542,0.5002895163681392,0.4973594711966095,0.5012505014214207
0.47953216374269,0.4949949949949949,0.7627627627627627,0.5012365488253658,0.4984739348064949,0.547308020998657
0.4603934077618288,0.5850850850850849,0.6268768768768769,0.4141740935172751,0.0,0.2003104452622216
0.0486443381180223,1.0,0.021021021021021,1.0,0.5876118387777526,0.0
0.7259436469962786,0.5958458458458458,0.7537537537537538,0.318551720529501,1.0,0.4892408043671625
0.5260499734183944,0.6373873873873873,0.5553053053053053,1.0,0.5867868915360064,0.5314822889233828
0.5430622009569378,0.4216716716716716,0.3430930930930931,1.0,0.7157245757538762,0.5794164326700036
0.3253588516746412,0.5467967967967967,0.8963963963963963,0.0,1.0,1.0
0.3482190324295587,0.3916416416416415,0.6341341341341341,1.0,0.1202382405776374,0.973125555923749
0.3354598617756512,0.5300300300300299,0.6901901901901901,0.5660934475120777,0.0,0.4748504456110365
0.6206804891015417,0.4704704704704704,0.576076076076076,0.5258367197446675,0.0,0.3530250972321537
0.6706539074960127,0.5202702702702702,0.7422422422422421,0.5115823988000767,0.5096604286935138,1.0
0.5709728867623605,0.2602602602602602,0.2922922922922923,0.6493102185325357,0.5303695693880043,0.536595915377505
0.46943115364168,0.5015015015015014,0.7294794794794794,0.5056612658492771,0.4920644609937736,0.0
0.5526315789473685,0.3195695695695695,0.2807807807807808,1.0,0.5427594746847585,0.5376318956345815
0.5337586390217969,0.4949949949949949,0.7542542542542542,0.5004116015836196,0.4973594711966095,0.5011912028881874
0.703083466241361,0.6931931931931931,0.7917917917917918,0.3040218358128259,1.0,0.4267488707117568
0.1164274322169059,0.276026026026026,0.7294794794794794,0.4781781397701309,0.0,0.0
0.5600744284954812,0.8313313313313312,0.9974974974974976,0.0,0.5488637354587788,0.6529727749969478
0.5890483785220627,0.6196196196196195,0.7647647647647646,0.4998325688473412,0.4988244937823743,0.8891152310026684
0.5337586390217969,0.4947447447447446,0.7540040040040039,0.5002895163681392,0.4973751678671713,0.5012505014214207
0.6815523657628921,0.559059059059059,0.6791791791791791,0.4903395713064862,0.5064548197498997,1.0
0.5579479000531632,0.4169169169169168,0.2972972972972972,0.0,0.3775171355320299,0.3731238118492422
0.3519404572036151,0.5292792792792792,0.6066066066066066,0.2762788426321572,1.0,0.58237612710815
0.2849548112706007,1.0,0.0885885885885885,0.3584735859915935,0.9992831853776794,0.2523204911313811
0.119351408825093,0.0,0.7287287287287287,0.643160611821337,0.0012051554842422,0.0
0.5311004784688995,0.0,1.0,0.3192824877478766,1.0,0.0264610984181244
0.7251461988304093,0.604104104104104,0.6408908908908908,0.4896227566841655,0.5018312782322061,1.0
0.6406166932482722,0.4847347347347346,0.5588088088088088,0.0351151961211783,1.0,0.4735685508484922
0.0,0.9366866866866864,0.0,1.0,0.8109667404991541,0.0
0.6366294524189261,0.562062062062062,0.6781781781781782,0.4968868270052496,0.5024574009801699,1.0
0.6018075491759702,0.2172172172172171,0.1504004004004004,1.0,0.712367232328165,0.6591380783787083
0.4444444444444444,0.4629629629629629,0.7194694694694694,0.5062577393306242,0.4968257843975094,0.1725221061443745
0.5539606592238171,0.6886886886886886,0.7882882882882882,0.0,0.5077681078535675,0.5097354238973089
0.4912280701754385,0.5087587587587586,0.6391391391391391,0.5062420426600625,0.4915307741946736,0.0
0.4526847421584263,0.5222722722722721,0.7697697697697696,0.5432338629506253,0.4789716936707536,0.5138880652981496
0.0385433280170122,0.8613613613613613,0.7960460460460459,0.0623855451104871,1.0,0.645998221044003
0.5337586390217969,0.4949949949949949,0.7545045045045045,0.5003662556464412,0.4973751678671713,0.501297591433106
0.3631047315257841,0.5985985985985985,0.6774274274274273,0.495711320787624,0.4936358721244571,0.9961089697751888
0.0,0.8415915915915915,0.0432932932932932,0.9982751103127124,0.9953921551528682,0.0
0.5337586390217969,0.4947447447447446,0.7545045045045045,0.5003505589758794,0.4974205138043497,0.5013272406997227
0.5337586390217969,0.4947447447447446,0.7540040040040039,0.5003348623053177,0.4973594711966095,0.5013882833074629
0.563264221158958,0.3425925925925925,0.3328328328328328,0.2463226189022795,0.4885553830859654,0.4975879449570086
0.5337586390217969,0.4944944944944944,0.7542542542542542,0.5003348623053177,0.4973594711966095,0.5012818947625443
0.5337586390217969,0.4947447447447446,0.7545045045045045,0.500305213038701,0.4973594711966095,0.5012365488253658
0.5994152046783626,0.6168668668668668,0.5608108108108107,0.6125311753318101,0.0,0.2965449884019046
0.3926103136629452,0.4034034034034033,0.7494994994994995,0.4995570050752568,0.4970403055618536,0.698677991523798
0.6079213184476342,0.4982482482482481,0.6669169169169169,0.4984442855398782,0.5027765666149258,0.9998325688473412
0.3875598086124402,0.2800300300300299,0.6701701701701701,0.0,0.214289202434728,0.0
0.2889420520999468,0.4809809809809809,0.5828328328328328,0.5295603188168199,0.0,0.5798140816575684
0.60207336523126,0.5503003003003002,0.7287287287287287,0.5027765666149258,0.4983814988576312,0.0879937910947555
0.3293460925039873,0.5122622622622621,0.56006006006006,0.6063048293423094,0.4844498316968101,0.8881856392905105
0.0263157894736841,0.3305805805805805,0.6809309309309308,0.0,1.0,1.0
0.5340244550770866,0.4949949949949949,0.7542542542542542,0.5003348623053177,0.4974205138043497,0.5014039799780247
0.532695374800638,0.4944944944944944,0.7537537537537538,0.5004569475207981,0.4974815564120899,0.501297591433106
0.2913343965975544,0.9952452452452452,0.7139639639639639,1.0,0.6658527652301306,0.6084273680171617
0.5940988835725678,0.5578078078078077,0.6308808808808808,0.5018469749027679,0.4964438320805064,0.000151734482097
0.2123870281765018,0.6861861861861861,0.6596596596596596,0.0,1.0,1.0
0.6387559808612441,0.552052052052052,0.752002002002002,0.5008702931789246,0.4988855363901145,0.5439960235101243
0.1929824561403509,0.3263263263263263,0.4522022022022022,0.6139212027137799,0.6089157088790833,0.437752236775555
0.5773524720893142,0.4909909909909909,0.755005005005005,0.4998622181139578,0.497390864537733,0.5043793710867328
0.8423710792131844,0.4084084084084083,0.7222222222222222,0.6051310671991907,0.597760608333188,0.2591869124649005
0.3455608718766614,0.5508008008008007,0.7109609609609608,0.4921098069309521,0.4922161954758707,0.9989012330606764
0.2086656034024455,0.1949449449449449,0.6223723723723723,0.0,1.0,1.0
0.5340244550770866,0.4949949949949949,0.7537537537537538,0.5003505589758794,0.4973594711966095,0.5012818947625443
0.4175970228601807,0.5525525525525524,0.4837337337337337,0.2756527198841935,1.0,0.6530634668713047
0.5337586390217969,0.4949949949949949,0.7542542542542542,0.5003662556464412,0.4973594711966095,0.5011912028881874
0.5337586390217969,0.4949949949949949,0.7540040040040039,0.5003348623053177,0.4974065612082948,0.5011441128765021
0.4226475279106858,0.5728228228228227,0.6001001001001001,0.5938521373633081,0.4976507316392556,0.7771630884071368
0.3811802232854864,0.5182682682682682,0.7635135135135135,0.6366900954008755,0.0,0.6194900326141932
0.543859649122807,0.8310810810810809,0.7312312312312312,0.3824319374923697,0.4742557162041962,0.6078169419397597
0.5526315789473685,0.5523023023023022,0.4244244244244244,0.0,0.5163437222038125,0.361738493468441
0.5063795853269537,0.6604104104104103,1.0,0.0658039311439384,0.5237002284737604,0.4521582922022429
0.5340244550770866,0.4949949949949949,0.7542542542542542,0.500305213038701,0.4973751678671713,0.5013586340408462
0.5337586390217969,0.4949949949949949,0.7545045045045045,0.5003348623053177,0.4974362104749115,0.5013115440291609
0.5340244550770866,0.4947447447447446,0.7542542542542542,0.5003209097092628,0.4973751678671713,0.501220852154804
0.5951621477937268,0.7925425425425424,0.7940440440440439,0.0,0.4472905802535884,0.4803896262448331
0.4976076555023923,0.6756756756756755,0.6261261261261261,0.3316130945113975,0.0,0.2648185290475609
0.3825093035619351,0.542042042042042,0.5965965965965966,0.3285923574655109,1.0,0.5130020754486632
0.1153641679957469,1.0,0.4812312312312312,1.0,1.0,0.0
0.5324295587453483,0.4812312312312311,0.6238738738738738,0.5004569475207981,0.4969792629541134,0.0
0.2541201488569909,0.4819819819819819,0.591091091091091,0.4910720825993686,0.0,0.5052950102028358
0.5691121743753322,0.5077577577577577,0.7317317317317317,0.5020911453337287,0.4960775764340652,0.0
0.552099946836789,0.2735235235235235,0.2332332332332332,0.0,0.4648708512827668,0.3584264959799083
0.6871345029239766,0.5623123123123122,0.7047047047047046,0.4188586776427089,1.0,0.772616286167745
0.4752791068580542,0.9079079079079078,0.4987487487487487,1.0,0.6695467150356663,0.6217800024417043
0.3604465709728868,0.6058558558558558,0.7675175175175175,0.4748347489404747,0.4924760625773933,1.0
0.4968102073365231,0.3528528528528528,0.285035035035035,1.0,0.6186511327763922,0.6978233950154351
0.2169059011164274,0.337087087087087,0.4639639639639639,0.5809581945340705,0.607100127317439,0.4368209009888902
0.5031897926634769,0.6856856856856856,0.5778278278278278,1.0,0.4605821720703908,0.4325932643842545
0.3248272195640617,0.3168168168168167,0.8343343343343342,0.415243211189982,0.0,0.0
0.6996278575225944,0.1303803803803803,1.0,0.0012818947625443,0.9993738772520362,0.0
0.5337586390217969,0.4949949949949949,0.7540040040040039,0.500305213038701,0.4973437745260478,0.5013272406997227
0.5225943646996278,0.3013013013013012,0.3528528528528528,0.3415490869769956,0.532307236165129,0.5419362715175192
0.3984582668793195,0.6896896896896896,0.4186686686686686,0.502914348500968,0.0,0.2644819226677364
0.0,1.0,0.1086086086086086,1.0,0.97488183895216,0.0
0.3740031897926634,0.5535535535535534,0.6311311311311311,0.4558661946038335,0.4911645185482324,0.9998936114550814
0.8351940457203615,0.5598098098098097,0.5087587587587588,0.9998325688473412,0.0,0.5766398660550779
0.5457203615098352,0.3873873873873873,0.3298298298298298,0.0,0.5512443971606467,0.5430646877234595
0.2711323763955343,0.4639639639639639,0.5487987987987988,0.7199208190173885,0.0,0.4472905802535884
0.5337586390217969,0.4947447447447446,0.7540040040040039,0.5003209097092628,0.497390864537733,0.501297591433106
0.3692185007974481,0.7309809809809809,0.6931931931931932,0.4485864276121876,0.0,0.3332472923243281
0.5340244550770866,0.4947447447447446,0.7542542542542542,0.500305213038701,0.4974065612082948,0.501220852154804
0.5116959064327485,0.5165165165165164,0.7555055055055054,0.4989779723389783,0.4956206289132672,0.5115056595217747
0.5329611908559277,0.5608108108108107,0.6889389389389389,0.5494602089401259,0.5000156966705618,0.4189964595287511
0.5845295055821371,0.6398898898898898,0.6634134134134133,0.2587753108812808,1.0,0.4012173640057903
0.2442849548112706,0.9552052052052052,0.2765265265265265,0.3436541849067792,1.0,0.4051851335089035
0.5263157894736842,0.6839339339339339,0.7682682682682682,0.0,0.6334844864572615,0.3085407328601078
0.4330143540669856,0.4639639639639639,0.7204704704704704,0.5346565045258733,0.5132305492090622,0.016985541622338
0.2963849016480595,0.6343843843843843,0.6736736736736736,0.8357343425711146,0.0,0.3071820988192615
0.0,0.0135135135135134,0.6916916916916916,0.1282662155327276,1.0,1.0
0.5337586390217969,0.4944944944944944,0.7537537537537538,0.5003505589758794,0.497390864537733,0.5012365488253658
0.5217969165337586,0.4074074074074073,0.3145645645645646,1.0,0.6339274813820046,0.6399253536111063
0.3931419457735247,0.4677177177177176,0.6486486486486486,1.0,0.2249716587892634,0.7656417322148001
0.5507708665603402,0.324074074074074,0.2047047047047047,0.5524809459860125,0.4653121021330031,0.4409421490486073
0.5637958532695375,0.3663663663663663,0.3355855855855856,0.0,0.398868095645046,0.4804820621936969
0.5140882509303561,0.8345845845845845,0.9947447447447446,1.0,0.7514345012818948,0.6234438495212515
0.5337586390217969,0.4947447447447446,0.7540040040040039,0.5003348623053177,0.4973437745260478,0.501297591433106
0.3862307283359915,0.4234234234234233,1.0,0.0,0.0,0.0
0.684742158426369,0.5575575575575574,0.7014514514514514,0.5166192859758969,0.51255908052392,0.9992988820482412
0.5337586390217969,0.4949949949949949,0.7542542542542542,0.5004116015836196,0.4974205138043497,0.501220852154804
0.1820839978734715,0.0963463463463463,0.6596596596596596,0.0,1.0,1.0
0.5337586390217969,0.4947447447447446,0.7542542542542542,0.5002598671015226,0.4974065612082948,0.5012505014214207
0.5337586390217969,0.4947447447447446,0.7542542542542542,0.5003209097092628,0.4973594711966095,0.5011912028881874
0.0364167995746942,0.1561561561561561,0.6836836836836836,0.0,1.0,1.0
0.5340244550770866,0.4947447447447446,0.7537537537537538,0.5003348623053177,0.4974205138043497,0.5012661980919825
0.137692716640085,1.0,0.2797797797797797,1.0,1.0,0.0
0.0,1.0,0.1061061061061061,1.0,0.0,0.0
0.6544391281233387,0.642142142142142,0.6228728728728729,0.5019376667771247,0.4962310549906692,0.0
0.2232854864433811,0.378128128128128,0.4739739739739739,0.5069135113452047,0.5521757329473115,0.4961996616495456
0.5124933545986178,0.5252752752752752,0.9476976976976976,0.4150129933550761,0.482083122590997,0.4462371592514432
0.5901116427432217,0.5285285285285284,0.7324824824824825,0.5015557144601217,0.4971920400439507,0.0001988244937823
0.3705475810738968,0.2447447447447447,0.8573573573573573,0.0,1.0,1.0
0.513290802764487,0.518018018018018,0.6659159159159158,0.5041665939968956,0.4984582381359331,0.0
0.3009037745879851,0.573073073073073,0.9789789789789788,0.0,0.0,0.0193051607164658
0.4199893673577884,0.4904904904904904,0.6604104104104104,0.5057083558609624,0.4924464133107766,0.0
0.2482721956406167,0.4654654654654653,0.6291291291291291,0.2323735109963897,1.0,0.7501822557859672
0.5321637426900585,0.302052052052052,0.3503503503503503,0.4358738685316636,0.4672811622512514,0.5379528053438443
0.5337586390217969,0.4947447447447446,0.7540040040040039,0.5002895163681392,0.4974205138043497,0.501374330711408
0.8896863370547581,0.5440440440440439,0.6954454454454454,0.4923243280952962,1.0,0.4979402480073949
0.5797448165869219,0.4476976976976976,0.5415415415415415,0.7347855660393812,0.0,0.4258785775328322
0.5334928229665071,0.4944944944944944,0.7540040040040039,0.5003662556464412,0.497390864537733,0.5013272406997227
0.4059011164274322,0.4982482482482481,0.5242742742742742,0.4617576782880164,1.0,0.4598182674363849
0.0178096757044126,0.0,1.0,0.0,1.0,0.8916040253239619
0.5337586390217969,0.4947447447447446,0.7540040040040039,0.5003662556464412,0.497390864537733,0.5012661980919825
0.5340244550770866,0.4949949949949949,0.7540040040040039,0.5002738196975774,0.4973751678671713,0.5012661980919825
0.3599149388623073,0.5275275275275274,0.4939939939939939,0.2111917261105395,1.0,0.5331618326734918
0.0,0.7625125125125124,0.2249749749749749,0.9613757259710134,0.0,0.0
0.5544922913343966,0.6981981981981981,0.9269269269269268,0.0,0.4055827824964682,0.4802832376999145
0.620414673046252,0.3015515515515514,0.2297297297297297,1.0,0.7058199766294015,0.6113713657847464
0.5337586390217969,0.4944944944944944,0.7540040040040039,0.5002895163681392,0.4974065612082948,0.5012505014214207
0.5337586390217969,0.4947447447447446,0.7537537537537538,0.5003976489875648,0.4973594711966095,0.501297591433106
0.6057947900053163,0.5047547547547546,0.7552552552552552,0.5252559429338821,0.5155048223660115,0.6922842143816383
0.5579479000531632,0.7107107107107106,0.7537537537537538,0.0,0.5407154193627152,0.3926870955927237
0.0,0.4632132132132131,0.8953953953953953,0.0,0.0,0.0
0.2807017543859649,0.2149649649649649,0.8626126126126126,0.0,0.372680816924499,0.0
0.5433280170122275,0.6248748748748748,1.0,0.0,1.0,1.0
0.6028708133971292,0.5185185185185184,0.6729229229229229,0.5034183860334513,0.5066082983065037,1.0
0.8947368421052632,0.3958958958958958,0.6864364364364364,0.4919877217154716,0.332254913929923,0.3872386068332839
0.5337586390217969,0.4947447447447446,0.7540040040040039,0.5003348623053177,0.4974205138043497,0.5012505014214207
0.5337586390217969,0.4947447447447446,0.7542542542542542,0.5002738196975774,0.497390864537733,0.5013429373702845
0.5337586390217969,0.4947447447447446,0.7537537537537538,0.5003505589758794,0.4973594711966095,0.5012818947625443
0.1275917065390749,0.7890390390390389,0.0560560560560561,1.0,0.3715663533146136,0.0
0.5579479000531632,0.3355855855855855,0.274024024024024,0.0,0.5532448506200185,0.4036747649859602
0.5364167995746943,0.563063063063063,0.9987487487487486,0.0505589758794495,0.0,0.0792490015173448
0.4558745348219032,0.5027527527527527,0.7117117117117117,0.5007325112928824,0.4968414810680712,0.397798977972339
0.4922913343965975,0.3836336336336335,0.5195195195195195,0.0,0.3755498194882886,0.4061775119033085
0.5337586390217969,0.4947447447447446,0.7540040040040039,0.5003348623053177,0.4974815564120899,0.5011441128765021
0.1135034556087187,0.0,0.5978478478478478,0.0,1.0,1.0
0.1600212652844231,1.0,0.3158158158158158,0.9980623332228752,1.0,0.0
0.6876661350345561,0.659159159159159,0.7342342342342342,0.095088686188674,1.0,0.3422502049287546
0.6454013822434875,0.5623123123123122,0.7304804804804804,0.5302771334391405,0.5203114917069257,0.8043741388632122
0.5337586390217969,0.4949949949949949,0.7542542542542542,0.500381952317003,0.4973141252594311,0.5012365488253658
0.7078681552365763,0.5765765765765765,0.757007007007007,0.2689990756405113,1.0,0.61093011493451
0.5794790005316321,0.569069069069069,0.647147147147147,0.4893785862532047,0.5060885641034585,1.0
0.8904837852206273,0.4349349349349348,0.6298798798798798,0.6864851666463191,0.7748748626541326,0.5692537105185134
0.239766081871345,0.6874374374374373,0.8203203203203202,0.0,1.0,1.0
0.6047315257841573,0.61011011011011,0.7339839839839839,0.5024260076390463,0.4950398521024818,0.0057223084570173
0.6273258904837852,0.4669669669669669,0.247997997997998,0.0,0.4143415246699339,0.3833772258750894
0.6419457735247209,0.5508008008008007,0.7474974974974975,0.501374330711408,0.4974972530826517,0.0511990512234682
0.5435938330675173,0.6013513513513513,0.542042042042042,0.5111097546087169,0.0,0.3290039590491306
0.2706007442849548,1.0,0.1168668668668668,1.0,1.0,0.0
0.2607655502392344,0.4844844844844844,0.8108108108108107,0.1943300137781886,0.0,0.0
0.5619351408825093,0.6569069069069068,0.8225725725725725,0.3406474004569475,0.4601234804750859,0.4952386765962642
0.2355130249867091,0.3996496496496495,0.4889889889889889,0.513779932678724,0.4298323944398904,0.5501002842841446
0.8516746411483254,0.396146146146146,0.7349849849849849,0.602277761305963,0.0,0.3581073303451523
0.4776714513556618,0.5390390390390389,0.7530030030030029,0.5026562254739523,0.4986117166925371,0.2712123061897204
0.0563530037214247,0.804054054054054,0.8113113113113113,0.1867136404067182,1.0,0.6981443047246978
0.5116959064327485,0.5518018018018017,0.700950950950951,0.4971309974362105,0.4947799850009592,0.9138531838080124
0.5435938330675173,0.4361861861861861,0.1769269269269269,0.0,0.4590247135357622,0.5157489927969723
0.2195640616693248,0.4051551551551551,0.4772272272272272,0.593471929120812,0.0,0.6323560702513211
0.7254120148856991,0.572072072072072,0.6919419419419419,0.2513734586741545,1.0,0.3460958892163873
0.9486975013290804,0.3998998998998998,0.6561561561561561,0.4457784676561382,0.4968711303346879,0.3603031201492928
0.57150451887294,0.4979979979979979,0.7535035035035034,0.4990843608838969,0.4972530826516909,0.5113085791024993
0.6374269005847953,0.5515515515515514,0.6931931931931932,0.5348710256902175,0.5281563388387952,1.0
0.4215842636895268,0.5327827827827827,0.6894394394394394,0.508423879868148,0.4936672654655807,0.0
0.8872939925571505,0.4026526526526526,0.6709209209209209,0.5235624465877182,0.96087168843853,0.5134607670439681
0.9181286549707602,0.4286786786786786,0.7114614614614614,0.5004272982541814,0.5230741057257966,0.4434588485620105
0.6634768740031898,0.5452952952952952,0.6819319319319319,0.4961996616495456,0.5028236566266111,1.0
0.5656565656565656,0.5237737737737737,0.7084584584584583,0.504517152972775,0.497085651499032,0.0
0.5337586390217969,0.4947447447447446,0.7540040040040039,0.5003505589758794,0.497390864537733,0.5012818947625443
0.5568846358320042,0.3676176176176176,0.2655155155155155,1.0,0.624938521373633,0.5712210265622547
0.5340244550770866,0.4947447447447446,0.7540040040040039,0.5003505589758794,0.4973437745260478,0.5012505014214207
0.9157363104731526,0.3415915915915915,0.7097097097097096,0.5809878438006871,0.1961002494026544,0.4672654655806896
0.5390749601275917,0.6033533533533533,0.9374374374374376,0.3608838969600781,0.5162216369883321,0.5072483736505223
0.6581605528973951,0.6033533533533533,0.6246246246246245,0.0502834121073652,1.0,0.4537140066623646
0.0,0.9729729729729728,0.9754754754754754,0.7373022655527844,1.0,0.4927359296789159
0.5728335991493886,0.5255255255255254,0.9907407407407408,0.9881577340984008,0.5682299387829848,0.5484992238868445
0.5606060606060607,0.8265765765765765,0.8008008008008007,0.0,0.4852433855974327,0.4780543104801437
0.0,0.5993493493493492,0.5065065065065065,0.0006557720145804,0.0,0.0
0.5340244550770866,0.4947447447447446,0.7542542542542542,0.5002895163681392,0.497390864537733,0.501297591433106
0.835725677830941,0.5012512512512511,0.6338838838838838,0.708537244711094,0.0,0.5111864938870189
0.3556618819776714,0.5600600600600599,0.7392392392392392,0.4996651376946823,0.4969635662835516,0.9326386103214328
0.5340244550770866,0.4947447447447446,0.7540040040040039,0.5003348623053177,0.4974205138043497,0.5013115440291609
0.0188729399255714,0.4897397397397396,0.3253253253253253,1.0,0.0,0.0
0.6600212652844232,0.578078078078078,0.68993993993994,0.4965519646999319,0.5048537593525996,1.0
0.3681552365762892,0.6006006006006005,0.7444944944944945,0.5029596944381464,0.4977571201841743,0.8018556952753022
0.5598086124401914,0.4914914914914914,0.6616616616616616,0.5025637895250885,0.4961543157123672,0.0004883408619216
0.6007442849548112,0.7284784784784784,0.5950950950950951,0.4841899645952875,0.5063798245461046,1.0
0.52046783625731,1.0,0.6524024024024023,1.0,0.5707640790414567,0.6970455377853741
0.5207336523125997,0.646146146146146,0.8460960960960959,0.0,0.5034340827040131,0.4303660812389905
0.593833067517278,0.584084084084084,0.6433933933933933,0.4942009522646807,0.5012505014214207,1.0
0.0,0.0,0.1016016016016016,0.0,0.9983518495910144,1.0
0.2293992557150452,0.7915415415415414,0.1641641641641641,1.0,0.1703856148734673,0.0
0.8915470494417863,0.4281781781781781,0.5853353353353353,0.7315503078291505,0.0,0.5034794286411916
0.2376395534290271,0.5112612612612611,0.6786786786786786,0.5662155327275581,0.492340024765858,0.9706681549435792
0.0005316321105794,0.0,0.4727227227227227,0.0,1.0,1.0
0.5334928229665071,0.4947447447447446,0.7542542542542542,0.5003662556464412,0.497390864537733,0.5013586340408462
0.5768208399787347,0.5653153153153152,0.637137137137137,0.0,0.4470150164815041,0.5111394038753335
0.26528442317916,0.0,1.0,0.415790850585137,1.0,0.3134084448087622
0.5337586390217969,0.4947447447447446,0.7542542542542542,0.500381952317003,0.497390864537733,0.5012365488253658
0.4346092503987241,0.4419419419419418,0.7492492492492492,0.5004272982541814,0.4960008371557633,0.6819994070146677
0.856193514088251,0.4034034034034033,0.6864364364364364,0.542257181226782,0.2609118021521879,0.4401468510734778
0.5337586390217969,0.4947447447447446,0.7540040040040039,0.500305213038701,0.4974205138043497,0.5012505014214207
0.5287081339712919,0.7337337337337336,0.566066066066066,0.3011231839824198,0.5246769101976037,0.6201615012993356
0.6435406698564593,0.6293793793793793,0.4466966966966967,0.9204300887733924,0.0,0.1236723232816506
0.5045188729399256,0.557057057057057,0.8861361361361361,0.0064548197498997,0.4275127753457627,0.4918656364999912
0.5318979266347688,0.6869369369369368,0.849099099099099,0.3932521757329473,0.4748504456110365,0.5083785339309695
0.5337586390217969,0.4947447447447446,0.7542542542542542,0.5002895163681392,0.4973298219299928,0.5013429373702845
0.2357788410419989,0.4842342342342342,0.5725725725725725,0.3188412368976403,1.0,0.4874095261349565
0.6677299308878256,0.5057557557557557,0.7382382382382382,0.5246001709193017,0.5156269075814919,0.8141252594310828
0.5390749601275917,0.5007507507507507,0.7525025025025025,0.5016324537384237,0.4978478120585311,0.4955438896349652
0.5342902711323764,0.4947447447447446,0.7537537537537538,0.5002895163681392,0.4973594711966095,0.5014336292446413
0.56113769271664,0.6656656656656655,0.68993993993994,0.6728569684496921,0.0,0.461635593072536
0.6722488038277512,0.533033033033033,0.730980980980981,0.4901721401538274,0.5019219701065629,1.0
0.3269537480063795,0.5017517517517517,0.5608108108108107,0.342372290144235,1.0,0.4535762247763224
0.6485911749069644,0.5100100100100099,0.6363863863863863,0.3567783455709228,1.0,0.5936847062106493
0.525518341307815,0.5998498498498498,0.7154654654654654,0.5041508973263338,0.4993442279854195,0.1488672236077925
0.4572036150983519,0.4839839839839839,0.745995995995996,0.4991767968327606,0.496016533826325,0.6181627919144705
0.5342902711323764,0.6093593593593593,0.8113113113113113,0.0,0.5114446169140345,0.4044386696199661
0.6307814992025519,1.0,0.1836836836836837,0.4302893419606886,0.3922754940091041,0.8076390463400596
0.5340244550770866,0.4947447447447446,0.7540040040040039,0.5003348623053177,0.497390864537733,0.5013115440291609
0.0784157363104731,0.0,0.9984984984984984,0.2902279505380469,1.0,0.9326386103214328
0.5337586390217969,0.4949949949949949,0.7542542542542542,0.5004116015836196,0.497390864537733,0.501220852154804
0.6656034024455078,0.4734734734734734,0.5915915915915916,0.5636517432024696,0.0,0.3671869822278808
0.2068048910154173,0.3981481481481481,0.4662162162162162,0.5544796553708774,0.0013429373702844,0.5925859392713256
0.6041998936735778,0.5808308308308308,0.6804304304304304,0.4882484259727576,0.5028533058932277,1.0
0.2612971823498139,0.5895895895895895,0.7537537537537538,0.6125015260651935,0.0,0.5350384568428763
0.5393407761828815,0.7552552552552552,0.7577577577577577,0.0,0.5016638470795473,0.4029126044264611
0.4835194045720361,0.7800300300300299,0.6318818818818819,0.4886774683014458,0.5043183284789926,1.0
0.5691121743753322,0.2660160160160159,0.0998498498498498,0.9999389573922596,0.4603990442471702,0.5661544901198179
0.2918660287081339,0.6301301301301301,0.7542542542542542,0.4427420339396899,0.4619861520484155,1.0
0.5337586390217969,0.4949949949949949,0.7540040040040039,0.5004272982541814,0.4974205138043497,0.5012505014214207
0.3197767145135566,0.0,0.9934934934934934,0.0025480928545267,1.0,0.8012295725273384
0.0720361509835194,0.063063063063063,0.7099599599599599,0.0,1.0,1.0
0.6028708133971292,0.5528028028028027,0.5728228228228228,0.2156478364755742,1.0,0.6036189546017405
0.5909090909090909,0.518018018018018,0.7607607607607607,0.5030835237281337,0.5005650801402236,0.8633866438774265
0.4898989898989899,0.5005005005005004,0.7412412412412412,0.5269511833545529,0.5444547151054293,0.5441651987372901
0.5276448697501329,0.6251251251251251,0.9907407407407408,0.1064740045694752,0.5148786996180477,0.5287353715750737
0.7565124933545986,0.5843343343343342,0.8405905905905906,0.5559917679683276,1.0,0.4718890070983832
0.7208931419457736,0.5683183183183182,0.7339839839839839,0.4349896227566842,1.0,0.5084692258053264
0.6116427432216907,0.6453953953953953,0.6551551551551551,0.4853340774717896,0.501220852154804,1.0
0.682615629984051,0.5317817817817817,0.6406406406406406,0.326211695763643,1.0,0.5583881263407573
0.5337586390217969,0.4949949949949949,0.7542542542542542,0.500305213038701,0.4974362104749115,0.5012661980919825
0.5337586390217969,0.5287787787787787,0.7077077077077076,0.4889355913284615,0.4783141775816663,0.0
0.9043062200956936,0.412162162162162,0.7675175175175175,0.6049479393759701,0.0,0.584055670858259
0.5409356725146199,0.4451951951951951,0.6536536536536536,0.504517152972775,0.4934527443012365,0.0
0.3094098883572568,0.5578078078078077,0.7494994994994995,0.5012051554842423,0.4965519646999319,0.955438896349652
0.5994152046783626,0.3198198198198198,0.1839339339339339,1.0,0.5468353768072972,0.6752219334809983
0.5103668261562998,0.4922422422422421,0.7432432432432432,0.5079041456651028,0.4803442803076547,0.5082250553743656
0.3686868686868687,0.7214714714714714,1.0,0.0,0.7599194237577829,0.0007482079634442
0.168261562998405,0.3653653653653653,0.4942442442442442,0.4954985436977868,0.827279069361843,0.4960636238380103
0.531632110579479,0.1716716716716716,0.2194694694694694,0.7416519873729006,0.6665695798524514,0.5170465842300783
0.176501860712387,0.296046046046046,0.9284284284284284,0.0,1.0,1.0
0.2525252525252525,0.3858858858858858,0.5112612612612613,0.6340652632680468,0.0,0.5035561679194935
0.3006379585326953,0.047047047047047,1.0,0.3515740272424438,1.0,0.0032963008179709
0.4646464646464646,0.5700700700700699,0.7517517517517517,0.4999093081256431,0.4958944486108446,0.4292062716919267
0.3333333333333333,1.0,0.0958458458458458,0.8383905680450668,1.0,0.0061496067111987
0.4104199893673578,0.4444444444444443,0.6151151151151151,0.504365418490678,0.4929487067687532,0.0
0.3351940457203615,0.859109109109109,0.3215715715715715,0.0,1.0,1.0
0.5406698564593302,0.5055055055055054,0.7535035035035034,0.5004116015836196,0.4972687793222526,0.5071419851056037
0.5374800637958532,0.6519019019019018,0.8673673673673673,0.418080820412648,0.5458429984128922,0.5532605472905803
0.5337586390217969,0.4947447447447446,0.7540040040040039,0.5003209097092628,0.4973751678671713,0.5013272406997227
0.0,0.2394894894894894,0.5167667667667667,1.0,0.0,0.0
0.3506113769271664,0.7252252252252251,0.825075075075075,0.0,1.0,0.8479882100563336
0.6743753322700692,0.596096096096096,0.6609109109109108,0.4917435512845108,0.5015103685229433,1.0
0.5802764486975014,0.6063563563563562,0.7505005005005004,0.5018016289655894,0.4983814988576312,0.3221985803233514
0.5513024986709197,0.7535035035035034,0.6959459459459459,0.5797059490381429,0.5042415892006906,0.6660812389905297
0.6602870813397129,0.6366366366366365,0.746996996996997,0.3983797547831244,1.0,0.4304428205172925
0.1802232854864434,0.0,0.9864864864864864,0.2179221096325235,0.0,0.38501142368802
0.5334928229665071,0.4947447447447446,0.7540040040040039,0.500381952317003,0.4973594711966095,0.5013272406997227
0.5103668261562998,0.5452952952952952,0.756006006006006,0.5021364912709071,0.4989169297312381,0.4393236479062385
0.5669856459330144,0.5653153153153152,0.5382882882882882,1.0,0.5012818947625443,0.8397178087447896
0.934609250398724,0.4421921921921921,0.6854354354354354,0.4773531925283848,0.5924481573852834,0.2789193714355477
0.4056353003721424,0.6616616616616615,0.7517517517517517,0.5182063937771422,0.0,0.4759038666131817
0.5334928229665071,0.4949949949949949,0.7542542542542542,0.5003505589758794,0.4973751678671713,0.5011912028881874
0.2418926103136629,0.4249249249249248,0.5462962962962963,0.3567329996337444,1.0,0.5475975373667963
0.5337586390217969,0.4944944944944944,0.7542542542542542,0.5003348623053177,0.4974065612082948,0.501297591433106
0.5337586390217969,0.4949949949949949,0.7540040040040039,0.5002895163681392,0.4973751678671713,0.501220852154804
0.5334928229665071,0.4947447447447446,0.7540040040040039,0.500381952317003,0.4974362104749115,0.5012505014214207
0.01010101010101,0.9917417417417416,0.5643143143143143,0.0734656504525873,1.0,0.4730348640493922
0.5260499734183944,0.5758258258258258,0.8501001001001001,0.5165878926347733,0.4983065036538361,0.5287214189790188
0.5138224348750664,0.6671671671671671,0.5442942942942943,1.0,0.6242670526884908,0.7342815285068978
0.3104731525784157,0.4814814814814814,0.5883383383383383,0.4303207353018121,1.0,0.5070355965606851
0.5337586390217969,0.4949949949949949,0.7542542542542542,0.5003348623053177,0.4973751678671713,0.5013115440291609
0.0002658160552897,0.2432432432432432,0.5765765765765766,1.0,0.0,0.0
0.5340244550770866,0.4947447447447446,0.7542542542542542,0.5003505589758794,0.4973141252594311,0.501297591433106
0.0,0.5275275275275274,0.3360860860860861,0.0,0.0,1.0
0.1842105263157894,0.1631631631631631,0.9269269269269268,0.0,1.0,1.0
0.4393939393939394,0.5953453453453452,1.0,0.0,0.00956799274465,0.0
0.6158958001063264,0.5395395395395395,0.6646646646646646,0.5012051554842423,0.4986570626297155,0.0044718070355966
0.5337586390217969,0.4949949949949949,0.7540040040040039,0.5003662556464412,0.4973751678671713,0.501220852154804
0.6921850079744817,0.5715715715715715,0.6396396396396395,0.4943683834173396,0.5036311631232886,1.0
0.5340244550770866,0.4947447447447446,0.7542542542542542,0.500305213038701,0.4974519071454732,0.5013272406997227
0.5600744284954812,0.7122122122122121,1.0,0.0,0.4483126079146101,0.4214992064460994
0.5978203083466241,0.3838838838838838,0.3398398398398398,1.0,0.6554598252437344,0.7478033381586061
0.1921850079744816,0.3701201201201201,0.492992992992993,0.54218044194848,0.1030556185360238,0.5552732092715
0.4479000531632111,0.4879879879879879,0.7537537537537538,0.5041962432635122,0.500763904634006,0.5972705233967595
0.8599149388623073,0.4839839839839839,0.6576576576576576,0.6431902610879536,0.8308195406107748,0.509492997540855
0.5337586390217969,0.4949949949949949,0.7545045045045045,0.5002598671015226,0.4974205138043497,0.5013272406997227
0.6363636363636364,0.5175175175175174,0.761011011011011,0.500763904634006,0.4988244937823743,0.7564853410537697
0.5337586390217969,0.4949949949949949,0.7540040040040039,0.5002895163681392,0.4974362104749115,0.501220852154804
0.2493354598617757,0.4404404404404403,0.5848348348348348,0.3961054816261751,1.0,0.2907459406665852
0.5723019670388092,0.2995495495495495,1.0,0.0,0.9296178732755463,0.146303434082704
0.2482721956406167,0.4336836836836836,0.7640140140140139,0.5480248356209777,0.0,0.0
0.6023391812865497,0.306056056056056,0.2637637637637637,1.0,0.5174285365470813,0.5611350436890664
0.5308346624136098,0.8188188188188187,1.0,0.0,0.5687182796449064,0.5306119957444582
0.1480595427963849,0.9156656656656654,0.0340340340340341,1.0,0.3994785217224479,0.0
0.0,0.4184184184184183,0.6696696696696697,0.5241728726651202,0.0,0.0
0.5491759702286018,0.3976476476476476,0.304054054054054,0.0,0.3605943805919389,0.4204004395067757
0.1039340776182881,0.5593093093093092,0.5893393393393394,0.2224549592758603,0.0225247222561348,0.0
0.0,0.4827327327327326,0.3748748748748748,0.4222770636761602,0.0,0.0
0.5919723551302498,0.5833333333333333,0.7547547547547546,0.4955752829760887,0.499389573922598,0.8265012121317823
0.0079744816586921,0.5523023023023022,0.3345845845845845,0.4111830057380051,0.0,0.0
0.6443381180223285,0.5387887887887887,0.7512512512512513,0.5013429373702845,0.4976193382981321,0.0484835272162826
0.5337586390217969,0.4947447447447446,0.7540040040040039,0.5004116015836196,0.4974065612082948,0.5012365488253658
0.1238702817650186,1.0,0.8716216216216215,0.6218567417200063,1.0,0.2335490172140154
0.6220095693779905,0.5705705705705705,0.5895895895895895,0.1985402096377557,1.0,0.5605228735371575
0.0295055821371611,0.7940440440440439,0.2027027027027027,0.6912150967089314,0.1600380208242496,0.0
0.2902711323763955,0.4451951951951951,0.5235235235235235,0.5671922144514013,0.0,0.5483457453302405
0.5334928229665071,0.4947447447447446,0.7542542542542542,0.5003348623053177,0.497390864537733,0.5012365488253658
0.5005316321105795,0.5447947947947946,0.7424924924924925,0.5029300451715297,0.5005040375324834,0.7094685804977588
0.4776714513556618,0.6243743743743743,0.4186686686686686,1.0,0.629227200586009,0.6509130230043427
0.8543328017012228,0.4547047047047046,0.6386386386386387,0.5494445122695641,0.9729127788339118,0.5212742208347141
0.5337586390217969,0.4947447447447446,0.7542542542542542,0.500381952317003,0.4974815564120899,0.5012365488253658
0.0728335991493885,0.5808308308308308,0.3433433433433434,0.4775206236810436,0.0,0.0
0.5332270069112175,0.6951951951951951,0.592092092092092,1.0,0.5700769136857526,0.4937283080733209
0.5829346092503987,0.5553053053053052,0.6526526526526526,0.4929644034393149,0.5029753911087081,1.0
0.7812333864965444,0.5447947947947946,0.7517517517517517,0.5202207998325689,1.0,0.4841899645952875
0.2259436469962785,0.3315815815815814,0.4354354354354354,0.5946770846050543,0.6126846538884141,0.5193051607164658
0.1889952153110047,0.345095095095095,0.5352852852852853,0.2551127544168687,0.9819313881089,0.4920958543348971
0.5598086124401914,0.7094594594594593,0.7867867867867867,0.4171948305631616,0.5366866072518618,0.5328862689014074
0.7400318979266348,0.5765765765765765,0.5918418418418419,0.4905540924708303,0.5039363761619896,1.0
0.0730994152046783,0.6846846846846846,0.1941941941941942,0.8528576660794949,0.1327990651760643,0.0
0.8437001594896332,0.4697197197197196,0.6376376376376376,0.7218445331984582,0.0,0.5567853218689502
0.5287081339712919,0.7920420420420419,0.6218718718718719,0.276981704658423,0.4924603659068315,0.5308875595165425
0.5340244550770866,0.4949949949949949,0.7537537537537538,0.500381952317003,0.4974362104749115,0.5013586340408462
0.4513556618819777,0.554054054054054,0.7434934934934935,0.5010534210021452,0.4981530250972321,0.4177145647662068
0.0010632642211588,1.0,0.2272272272272272,1.0,1.0,0.0
0.5337586390217969,0.4949949949949949,0.7540040040040039,0.500381952317003,0.4973594711966095,0.501374330711408
0.5337586390217969,0.4947447447447446,0.7540040040040039,0.5004116015836196,0.4974065612082948,0.501297591433106
0.5340244550770866,0.4947447447447446,0.7545045045045045,0.500381952317003,0.4973298219299928,0.5013115440291609
0.5337586390217969,0.4947447447447446,0.7542542542542542,0.5003976489875648,0.4973594711966095,0.501297591433106
0.5653907496012759,0.2517517517517517,0.4196696696696697,0.4147548703280604,0.4405758934021661,0.518755777246804
0.36735778841042,0.4004004004004003,0.6829329329329329,0.5354204091598793,0.4933917016934963,0.7972618030242251
0.5350877192982456,0.312062062062062,0.3753753753753753,4.5345937178475904e-05,0.5205260128712699,0.4746987111289394
0.5834662413609782,0.4749749749749749,0.7344844844844844,0.5185726494235834,0.50550953136718,0.0
0.5435938330675173,0.4962462462462461,0.6924424424424425,0.508882571463453,0.4914226415752481,0.0
0.5337586390217969,0.4944944944944944,0.7535035035035034,0.500305213038701,0.4974362104749115,0.5013115440291609
0.6435406698564593,0.5227727727727727,0.6624124124124124,0.4948881176203847,0.5045328496433368,1.0
0.1608187134502924,0.3768768768768768,0.9877377377377377,0.0,0.1310741754887768,0.0051572283167937
0.5340244550770866,0.4947447447447446,0.7542542542542542,0.5002738196975774,0.4973751678671713,0.5012051554842423
0.8264221158958002,0.7219719719719718,0.7732732732732732,0.2770880932033416,1.0,0.5308265169088023
0.5340244550770866,0.4949949949949949,0.7545045045045045,0.5003505589758794,0.4974205138043497,0.5012505014214207
0.2541201488569909,0.422172172172172,0.534034034034034,0.4833510647574864,0.0902506235066362,0.4034916371627396
0.5337586390217969,0.4949949949949949,0.7542542542542542,0.5003209097092628,0.4973751678671713,0.5012365488253658
0.2599681020733652,0.4557057057057056,0.5518018018018018,0.5418141863020388,0.0740446831888658,0.5211974815564121
0.5337586390217969,0.4947447447447446,0.7542542542542542,0.5003348623053177,0.497390864537733,0.5011598095470639
0.896863370547581,0.4396896896896896,0.78003003003003,0.5929521949177669,0.4207980884943404,0.3230985227688926
0.3522062732589048,0.5135135135135134,0.6103603603603603,0.3200010464447041,1.0,0.654345361633849
0.0,0.6286286286286286,0.0,1.0,0.0253326822121841,0.0
0.2490696438064858,0.4084084084084083,0.5052552552552553,0.5035858171861102,0.0001377818860421,0.5169244990145979
0.6573631047315258,0.4216716716716716,0.6166166166166166,0.6638837051118823,0.0,0.3829359750248531
0.5396065922381712,0.5275275275275274,0.5543043043043043,0.3518652876850899,1.0,0.5680921568969426
0.51010101010101,0.7057057057057056,0.8460960960960959,0.9144636098854142,0.5704588660027556,0.73548668399114
0.2395002658160552,0.4244244244244243,0.7942942942942943,0.0,0.0,0.0
0.5789473684210527,0.2962962962962963,0.3548548548548548,0.0072937195877008,0.5069588572823831,0.4817168669445558
0.4933545986177565,0.9824824824824824,0.4261761761761762,1.0,0.3937091232537454,0.6961002494026545
0.664274322169059,0.5725725725725724,0.6126126126126126,0.5044561103650348,0.4964298794844515,0.0
0.5725677830940988,0.5267767767767767,0.1921921921921922,0.0,0.4795193330659085,0.4000575544587265
0.2551834130781499,0.5107607607607607,0.6341341341341341,0.4296789158832865,0.0,0.5108202382405777
0.7418926103136629,0.5823323323323323,0.8073073073073073,0.4715541447930655,1.0,0.3679805361285034
0.0308346624136097,0.0,1.0,0.0,1.0,0.7835115196121178
0.0,0.9156656656656654,0.8901401401401401,0.3442349617175645,1.0,0.6655632488619914
0.199893673577884,0.4459459459459459,1.0,0.0,1.0,1.0
0.4213184476342371,0.8033033033033032,0.7705205205205206,1.0,0.3787083384202173,0.4697996058391614
0.5340244550770866,0.5257757757757757,0.7555055055055054,0.0,0.6079390271552401,0.3888571079756527
0.6174906964380649,0.7765265265265264,0.847097097097097,0.2548371906447844,1.0,0.2428885361982664
0.2690058479532163,0.5347847847847846,0.9469469469469468,0.0,1.0,1.0
0.5855927698032961,0.5077577577577577,0.7342342342342342,0.5013272406997227,0.496626959903727,0.0002895163681392
0.0,1.0,0.2962962962962963,1.0,0.5644313445070374,0.0
0.0209994683678894,0.912162162162162,0.0,1.0,0.2580271029178366,0.0
0.6422115895800107,0.4837337337337336,0.7667667667667667,0.5006261227479638,0.4990233182761567,0.8236775555051712
0.5382775119617225,0.4627127127127126,0.7377377377377377,0.5039224235659348,0.4976036416275703,0.0
0.552099946836789,0.5040040040040039,0.7019519519519519,0.5023649650313061,0.4970699548284703,0.0
0.5337586390217969,0.4949949949949949,0.7542542542542542,0.5003662556464412,0.4974065612082948,0.5012505014214207
0.0002658160552897,0.0,0.8280780780780781,0.0,1.0,0.9983361529204527
0.6770334928229665,0.579079079079079,0.6834334334334333,0.4912255611559726,0.5061042607740203,1.0
0.6480595427963849,0.4449449449449448,0.7084584584584583,0.4911331252071088,0.5021975338786473,1.0
0.3875598086124402,0.5422922922922921,0.7017017017017017,0.4613443326298899,0.4738580672166315,1.0
0.4835194045720361,0.5407907907907907,0.7129629629629629,0.505050839771875,0.4995570050752568,0.1778328130177721
